Ax,Ay,Az,Gx,Gy,Gz,Label
-0.0659,-0.3889,0.9726,-10.15,7.49,4.9,A
-0.0761,-0.3533,0.9784,-8.75,5.04,3.99,A
-0.0752,-0.3143,0.9892,-15.4,6.65,-1.89,A
-0.0737,-0.3601,1.0673,-22.75,3.5,-4.69,A
-0.0522,-0.3806,1.079,-29.61,16.1,-2.03,A
-0.0693,-0.4187,0.9726,-21.98,17.85,-3.01,A
-0.0703,-0.4402,0.9814,-18.48,17.36,-1.12,A
-0.0888,-0.4431,0.9643,-15.68,17.29,3.43,A
-0.1059,-0.3909,0.998,-16.38,19.53,5.81,A
-0.1118,-0.3723,1.0336,-20.3,23.17,1.61,A
-0.1113,-0.4494,1.0282,-27.93,28.35,0.7,A
-0.1249,-0.5124,0.9594,-23.1,25.9,4.2,A
-0.1288,-0.4817,0.9799,-21.35,29.26,9.8,A
-0.1547,-0.4358,0.9653,-14.21,27.65,9.8,A
-0.1606,-0.4431,0.8896,-8.33,22.68,5.11,A
-0.1542,-0.4812,0.9272,-5.81,12.53,1.54,A
-0.1391,-0.5314,1.0287,-8.33,11.97,4.69,A
-0.1386,-0.4817,1.0795,-13.02,20.51,7.98,A
-0.1435,-0.5285,1.0975,-23.45,29.05,8.19,A
-0.1435,-0.5905,1.0258,-32.97,38.15,16.45,A
-0.1635,-0.5373,0.8799,-25.83,38.5,24.85,A
-0.1893,-0.4699,0.875,-18.9,32.9,21.63,A
-0.2064,-0.4812,0.8872,-16.17,31.36,17.01,A
-0.2201,-0.4763,0.835,-9.59,28.63,13.93,A
-0.2313,-0.5529,0.8291,-3.15,16.17,11.55,A
-0.2284,-0.5402,0.8696,-4.69,13.09,16.66,A
-0.2289,-0.5002,0.9633,-10.08,11.9,15.82,A
-0.2176,-0.5568,1.0102,-22.19,25.76,17.85,A
-0.2264,-0.5588,0.854,-20.23,27.44,22.54,A
-0.223,-0.5339,0.8169,-19.32,23.45,26.32,A
-0.2313,-0.5144,0.7808,-17.15,20.23,28.07,A
-0.2377,-0.4597,0.7823,-7.84,17.01,24.71,A
-0.2372,-0.4353,0.7979,-7.0,16.24,20.58,A
-0.222,-0.4909,0.9257,-12.46,21.35,16.03,A
-0.2245,-0.4846,0.8891,-15.54,35.91,18.9,A
-0.2406,-0.4538,0.7462,-9.1,38.71,25.2,A
-0.2699,-0.4026,0.6354,0.7,21.28,24.71,A
-0.2811,-0.3504,0.6817,-0.7,9.31,16.38,A
-0.2786,-0.3655,0.6598,-2.17,3.85,8.47,A
-0.2664,-0.4182,0.6866,-3.08,-3.22,3.5,A
-0.2279,-0.4987,0.7764,-15.4,8.68,11.06,A
-0.2484,-0.4172,0.6481,-8.19,10.43,15.4,A
-0.2723,-0.3353,0.6359,-7.56,3.15,10.5,A
-0.2728,-0.2913,0.5285,-9.31,-3.85,-2.87,A
-0.2718,-0.3738,0.4592,-4.97,-26.6,-11.2,A
-0.2523,-0.3299,0.4885,-3.57,-36.47,-12.39,A
-0.2557,-0.2484,0.3611,4.83,-54.67,-24.92,A
-0.2479,-0.1708,0.2333,13.65,-85.05,-47.32,A
-0.1889,-0.1972,0.2367,18.97,-133.35,-74.97,A
-0.1005,-0.4085,0.6315,-8.4,-154.77,-87.99,A
-0.0239,-0.5353,0.5802,-21.42,-146.37,-73.22,A
0.0181,-0.5549,0.265,-3.78,-154.56,-64.68,A
0.0864,-0.5592,0.042,34.86,-205.94,-58.03,A
0.1718,-0.2723,0.0913,24.5,-284.13,-52.01,A
0.1449,-0.1415,0.5749,90.72,-319.27,-149.87,A
0.466,-0.1191,0.894,7.49,-332.08,-167.86,A
0.4953,-0.6788,0.8477,-23.38,-307.58,-150.01,A
0.6373,-0.834,0.9292,-12.53,-287.84,-116.34,A
0.6446,-0.7686,1.0838,26.18,-285.32,-77.21,A
0.8901,-1.381,1.9686,42.42,-277.41,-24.5,A
1.0292,-0.6276,2.6713,243.04,-178.29,-56.14,A
0.7056,-0.7266,2.4171,111.58,20.86,14.77,A
0.5871,-0.5915,1.7929,29.47,82.39,34.86,A
0.5793,-0.2738,1.4181,0.84,80.01,42.28,A
0.529,-0.2269,1.8266,-40.81,66.36,15.47,A
0.5661,-0.3255,1.7148,-86.94,139.02,13.16,A
0.5797,-0.5222,1.6216,-99.26,189.21,17.43,A
0.5534,-0.6686,1.1248,-106.47,228.41,54.53,A
0.4119,-0.5519,0.792,-53.76,158.34,73.43,A
0.3367,-0.5192,1.1546,-44.45,107.59,64.19,A
0.3416,-0.6715,1.6138,-59.01,143.85,70.56,A
0.367,-0.7662,1.7617,-105.14,215.32,105.42,A
0.4031,-0.6105,1.0082,-61.32,300.72,114.66,A
0.1713,-0.5632,0.8594,-15.61,242.97,84.63,A
0.1713,-0.7266,0.7813,-28.21,228.83,79.66,A
0.0673,-0.7569,0.9072,-8.61,182.14,101.08,A
0.039,-0.7471,0.8564,30.66,214.48,118.72,A
-0.0747,-0.5373,0.7823,51.59,192.36,107.8,A
-0.1244,-0.5451,0.8457,8.26,196.07,102.41,A
-0.2054,-0.4914,0.6183,20.72,178.01,98.63,A
-0.2625,-0.3826,0.8086,42.14,162.82,67.55,A
-0.2962,-0.2996,0.8135,-1.61,160.65,41.37,A
-0.3148,-0.3699,0.6398,-18.55,151.27,10.71,A
-0.3133,-0.5871,0.6764,-43.4,141.26,0.56,A
-0.327,-0.6012,0.527,-45.01,137.34,29.61,A
-0.3855,-0.5788,0.243,-15.96,107.87,51.31,A
-0.4231,-0.4348,0.2904,-3.57,70.42,51.8,A
-0.4582,-0.2601,0.2977,7.49,47.11,35.35,A
-0.4763,-0.2372,0.3963,19.53,25.34,8.33,A
-0.4631,-0.303,0.5061,16.87,19.25,-3.5,A
-0.4587,-0.2791,0.509,22.05,24.78,-5.32,A
-0.4734,-0.307,0.5202,23.03,23.73,-13.3,A
-0.4709,-0.3479,0.4485,23.59,16.94,-10.15,A
-0.4875,-0.2752,0.3304,41.79,-6.02,-13.3,A
-0.469,-0.1464,0.3963,54.11,-30.87,-27.65,A
-0.4621,-0.022,0.2596,77.21,-49.56,-52.99,A
-0.4143,0.1366,-0.1127,111.3,-93.38,-84.91,A
-0.3221,0.3099,-0.3357,150.5,-180.6,-122.64,A
-0.1357,0.4304,-0.1337,151.34,-288.54,-172.48,A
0.0595,0.4812,0.1649,106.26,-354.69,-230.44,A
0.364,0.2987,0.3792,43.26,-405.65,-300.51,A
0.5632,-0.0425,0.4592,-20.37,-434.49,-333.83,A
0.7793,-0.3675,0.6832,-69.93,-474.74,-325.08,A
0.9013,-0.7105,1.0219,-116.41,-492.8,-285.32,A
0.955,-1.281,1.2254,-93.8,-432.53,-250.67,A
1.0214,-1.8178,1.3093,-179.76,-311.36,-148.54,A
0.8843,-0.7032,1.8603,-134.47,-235.34,-219.59,A
0.7788,-2.2443,1.6231,34.51,-77.0,-7.0,A
0.6403,-0.8359,1.3908,-2.66,36.75,7.63,A
0.629,-0.6227,0.9618,91.07,134.26,19.11,A
0.5104,-0.5246,0.67,79.1,105.21,-6.3,A
0.5734,-0.55,0.733,128.94,42.63,18.41,A
0.4812,-0.5871,0.9374,143.71,46.76,17.78,A
0.4514,-0.4797,1.139,58.31,24.01,21.7,A
0.4426,-0.5109,1.3581,-58.87,22.89,24.43,A
0.4558,-0.611,1.4469,-145.39,42.7,31.01,A
0.5514,-0.8467,1.3361,-161.28,98.63,52.71,A
0.508,-1.2019,1.4606,-101.85,122.08,97.23,A
0.652,-1.0858,1.1771,-37.24,205.8,165.55,A
0.4987,-0.6285,0.8062,41.09,211.47,181.44,A
0.366,-0.4128,0.9706,44.94,148.4,151.97,A
0.3201,-0.3758,1.076,-6.58,162.82,127.54,A
0.2952,-0.6266,1.0931,-101.29,172.06,137.83,A
0.2289,-0.6593,0.4782,-27.72,149.24,112.77,A
0.0776,-0.5998,0.4358,20.86,105.49,116.06,A
0.0059,-0.4616,0.5236,4.76,50.61,88.27,A
-0.0264,-0.6276,0.9316,-17.92,36.33,69.23,A
-0.0015,-0.8696,0.6461,-31.71,75.39,77.91,A
-0.0644,-0.8789,0.3216,24.57,41.79,94.01,A
-0.0883,-0.6403,0.4455,40.74,7.35,100.03,A
-0.1196,-0.5622,0.6388,28.7,-10.85,91.35,A
-0.1074,-0.6525,0.5666,38.43,1.89,85.33,A
-0.1347,-0.6803,0.4787,57.82,-11.34,89.25,A
-0.1484,-0.6232,0.507,59.43,-34.65,91.49,A
-0.1527,-0.5597,0.6642,44.38,-49.91,101.78,A
-0.1586,-0.4358,0.7681,31.43,-51.31,109.27,A
-0.1801,-0.4177,0.8355,15.12,-45.92,100.38,A
-0.1757,-0.347,0.8096,4.48,-46.41,93.31,A
-0.182,-0.3504,0.9008,-6.58,-48.23,79.59,A
-0.1752,-0.3645,0.856,-12.67,-43.61,74.83,A
-0.1752,-0.3928,0.7613,-0.91,-51.38,70.21,A
-0.1684,-0.3094,0.8111,14.49,-68.25,65.52,A
-0.1601,-0.2362,1.0204,10.36,-70.91,43.75,A
-0.1127,-0.326,1.0448,-3.85,-50.19,30.24,A
-0.0786,-0.4534,0.915,29.61,-45.29,43.12,A
-0.0756,-0.3211,0.8374,7.98,-60.06,20.79,A
-0.041,-0.4109,0.9906,29.4,-57.68,25.76,A
0.0161,-0.4948,1.1917,15.68,-43.75,38.92,A
0.0322,-0.3699,1.0468,33.81,-26.67,55.02,A
0.0244,-0.164,1.0321,23.87,-30.45,42.56,A
-0.0034,0.0307,1.2356,6.79,-44.38,31.85,A
0.0234,0.2972,1.5694,-19.46,-24.5,2.66,A
0.0488,0.3982,1.5904,-39.76,14.7,-44.17,A
0.0976,0.4085,1.3864,-36.75,37.31,-78.68,A
0.0703,0.4914,1.1053,4.97,30.45,-132.16,A
0.1635,0.4163,1.22,-9.66,24.92,-155.68,A
0.2552,0.1225,1.0106,-27.51,42.91,-203.21,A
0.2333,-0.2923,0.9204,-11.41,21.0,-243.32,A
0.2611,-1.0756,1.0521,-31.64,51.38,-204.96,A
0.1259,-1.6143,1.0341,-15.54,73.57,-117.95,A
0.0576,-1.444,0.7886,31.99,96.81,-56.14,A
-0.019,-1.0185,0.4719,47.04,90.23,-33.6,A
-0.1303,-0.9453,0.2547,107.8,53.76,-70.77,A
-0.0781,-0.8989,0.3133,36.4,30.87,-60.48,A
-0.1083,-0.9443,0.265,33.32,0.63,-54.46,A
-0.1074,-0.9672,0.3328,57.68,-33.32,-49.28,A
-0.0673,-1.0204,0.6149,45.64,-56.21,-38.92,A
-0.0268,-0.997,0.8394,15.33,-55.3,8.33,A
-0.0444,-0.8345,0.8926,3.92,-56.63,46.06,A
-0.0571,-0.6061,1.1488,3.43,-53.34,60.48,A
0.0488,-0.3221,1.3947,-1.19,-9.59,73.64,A
-0.0361,-0.1015,0.9282,-34.23,-13.37,35.28,A
-0.0425,-0.2089,1.0131,-30.73,-17.99,8.75,A
-0.0034,-0.3733,1.12,-33.46,-19.95,6.72,A
0.0405,-0.5568,1.1683,-37.31,7.56,33.18,A
0.0117,-0.4446,1.0224,-33.04,11.97,46.69,A
0.0073,-0.327,0.9516,-33.88,2.17,41.65,A
-0.0005,-0.3811,0.9882,-14.84,-7.56,25.27,A
-0.0039,-0.3958,1.0585,-36.61,2.73,18.48,A
-0.0278,-0.4202,0.9257,-45.29,1.96,21.56,A
-0.0312,-0.5075,0.8442,-5.11,4.13,13.3,A
-0.0844,-0.3152,0.6544,-39.48,-15.68,-7.77,A
-0.0498,-0.4333,0.852,7.21,-19.46,-36.47,A
-0.0088,-0.5866,1.018,9.31,3.78,-23.87,A
-0.0259,-0.7403,0.9643,4.83,8.96,-3.08,A
-0.0229,-0.6944,0.8633,20.44,19.32,14.91,A
-0.0434,-0.5187,0.8218,28.56,16.59,16.66,A
-0.0551,-0.4255,0.7725,17.5,7.21,6.72,A
-0.0537,-0.4695,0.7178,11.9,-1.19,-3.92,A
-0.0434,-0.5524,0.8652,7.7,-10.43,-2.73,A
-0.0371,-0.5231,0.9008,3.08,-1.54,8.12,A
-0.041,-0.5031,0.9389,-2.66,5.81,9.94,A
-0.04,-0.5417,1.0004,-15.54,13.16,13.72,A
-0.0386,-0.5392,0.8911,-14.49,18.97,19.74,A
-0.0576,-0.5353,0.7491,-4.13,2.03,17.43,A
-0.0615,-0.529,0.8789,-0.84,-15.26,15.75,A
-0.0542,-0.5319,1.0951,-10.78,-8.61,19.32,A
-0.0654,-0.5197,1.078,-17.08,12.11,22.75,A
-0.0786,-0.4773,0.9404,-15.26,16.59,19.81,A
-0.0878,-0.4616,0.8847,-13.02,9.52,11.55,A
-0.0927,-0.5065,0.9199,-10.29,0.84,2.66,A
-0.0874,-0.5363,0.9418,-5.53,-1.33,-3.5,A
-0.081,-0.5544,0.9594,-5.53,0.07,-7.7,A
-0.0776,-0.608,0.8965,-0.91,0.63,-7.77,A
-0.0859,-0.6471,0.8603,10.64,-6.09,-3.85,A
-0.0712,-0.6886,1.0536,6.23,-1.96,2.03,A
-0.061,-0.6622,1.0438,3.85,17.5,23.87,A
-0.0898,-0.5592,0.9145,8.61,22.89,26.25,A
-0.1069,-0.4773,0.8564,4.41,13.16,21.14,A
-0.1122,-0.4656,0.8438,-1.05,5.46,12.81,A
-0.1225,-0.5109,0.8745,-1.47,-2.66,8.61,A
-0.1127,-0.5754,1.1224,-4.34,-1.05,8.96,A
-0.0937,-0.7198,1.1361,-10.64,21.84,22.4,A
-0.1127,-0.6793,1.0697,-2.03,32.13,37.8,A
-0.1391,-0.5714,1.0253,5.04,33.32,39.62,A
-0.141,-0.5022,1.0477,0.77,40.25,32.34,A
-0.1615,-0.5305,1.0063,-3.22,45.43,21.56,A
-0.1654,-0.6364,0.8584,-2.17,47.6,23.73,A
-0.1786,-0.6105,0.771,9.73,39.2,28.84,A
-0.1889,-0.5485,0.7588,15.12,29.12,28.21,A
-0.1991,-0.508,0.8032,12.11,19.81,23.31,A
-0.2025,-0.6632,1.1097,-14.91,27.93,24.22,A
-0.1869,-0.6764,1.1087,-27.44,58.52,46.55,A
-0.2318,-0.5954,0.9355,-23.31,72.38,57.68,A
-0.2377,-0.6066,0.8208,-22.12,71.68,63.07,A
-0.2664,-0.5056,0.6998,-0.7,61.74,63.28,A
-0.2821,-0.4802,0.6988,15.61,52.71,53.9,A
-0.3016,-0.5573,0.9091,19.88,45.43,41.86,A
-0.2796,-0.6344,0.9989,7.21,65.31,46.55,A
-0.2913,-0.5836,0.8198,10.78,81.13,65.52,A
-0.3523,-0.4514,0.7422,23.73,71.19,76.65,A
-0.3743,-0.3177,0.731,23.1,62.58,62.65,A
-0.3977,-0.3152,0.7725,17.15,52.57,36.68,A
-0.3753,-0.385,0.7886,7.42,53.9,20.86,A
-0.3875,-0.4226,0.7379,-0.63,55.3,13.58,A
-0.3958,-0.4221,0.5861,-3.22,53.27,16.17,A
-0.4158,-0.4138,0.5197,2.87,36.19,16.38,A
-0.4153,-0.4021,0.6046,0.63,25.27,19.95,A
-0.425,-0.3592,0.6037,6.09,19.74,25.55,A
-0.4299,-0.4231,0.7359,-4.76,18.55,21.0,A
-0.4397,-0.4241,0.6329,-4.83,18.76,25.2,A
-0.4436,-0.3245,0.5519,3.08,11.41,30.73,A
-0.4695,-0.2743,0.468,14.14,-9.45,17.99,A
-0.4607,-0.2664,0.5583,14.49,-25.76,5.95,A
-0.4133,-0.3689,0.9326,-13.93,-9.87,7.35,A
-0.4534,-0.3284,0.7471,-19.46,8.54,12.53,A
-0.4729,-0.3997,0.5573,-16.52,3.08,3.99,A
-0.4695,-0.4499,0.6139,-11.06,-16.38,7.77,A
-0.4651,-0.3865,0.6812,-1.61,-16.87,11.41,A
-0.4738,-0.2821,0.6656,7.84,-18.69,3.01,A
-0.4665,-0.2513,0.6393,3.08,-27.51,-13.51,A
-0.4475,-0.2406,0.5963,-0.77,-37.17,-26.32,A
-0.4363,-0.2874,0.4909,3.85,-56.42,-41.02,A
-0.3748,-0.5617,0.672,-11.13,-62.51,-37.52,A
-0.3455,-0.6266,0.5646,-7.91,-61.18,-16.66,A
-0.3489,-0.5266,0.4714,7.42,-70.49,0.14,A
-0.347,-0.2957,0.4192,22.75,-84.77,-3.78,A
-0.3094,-0.0581,0.2469,32.97,-99.12,-21.49,A
-0.2484,0.0024,-0.1664,56.7,-141.26,-55.65,A
-0.1166,0.0815,-0.1186,58.24,-219.03,-98.49,A
0.0356,-0.0322,0.0293,29.68,-286.93,-149.38,A
0.2381,-0.1991,0.0864,-0.28,-338.59,-179.48,A
0.4514,-0.466,0.2591,-23.31,-410.2,-190.05,A
0.6266,-0.6515,0.4597,-44.66,-478.87,-167.16,A
0.7891,-0.7676,0.7027,-40.25,-517.3,-133.14,A
0.753,-0.8355,1.1034,17.99,-524.37,-95.48,A
1.2302,-0.8023,2.3307,89.74,-442.4,-24.71,A
0.6739,-1.1941,2.1692,-184.45,-321.51,-106.89,A
0.8457,-2.0169,3.1012,-37.73,-172.69,17.99,A
1.0297,-1.8368,3.2486,5.88,192.29,158.41,A
1.0092,-0.9575,2.0906,-15.54,339.08,237.65,A
0.7037,-0.1562,0.7549,27.93,294.0,213.64,A
0.4543,-0.0493,0.9516,35.42,159.46,122.36,A
0.3889,-0.1508,1.0946,-12.88,136.15,70.35,A
0.306,-0.3489,1.0687,-23.87,123.76,46.55,A
0.1303,-0.6046,1.2361,-7.07,109.97,36.05,A
0.2772,-0.6573,1.6397,-31.08,178.92,58.94,A
0.2357,-0.5675,1.2449,-50.47,203.35,59.92,A
0.1923,-0.6373,0.9189,-15.12,214.27,48.37,A
0.1303,-0.7598,0.6891,31.92,197.26,40.39,A
0.0102,-0.7535,0.5988,68.18,139.44,45.29,A
0.0093,-0.6793,0.9394,57.68,118.86,48.44,A
-0.0298,-0.6173,1.0106,52.71,130.27,51.1,A
-0.0551,-0.547,1.0131,44.38,142.8,45.57,A
-0.0859,-0.5353,0.9931,27.79,151.27,37.24,A
-0.1298,-0.4597,0.8194,20.79,155.05,33.95,A
-0.1718,-0.4558,0.7559,16.38,142.38,27.79,A
-0.1732,-0.5719,0.8325,3.92,135.94,26.04,A
-0.204,-0.5988,0.651,14.28,138.32,38.99,A
-0.2611,-0.571,0.4241,45.78,117.46,45.22,A
-0.2894,-0.5417,0.5256,59.08,90.65,41.51,A
-0.3318,-0.3723,0.6466,60.34,80.92,39.76,A
-0.3489,-0.2889,0.7588,49.77,86.66,25.41,A
-0.364,-0.2913,0.6251,34.09,91.98,11.27,A
-0.3904,-0.2806,0.4577,28.0,81.27,-1.68,A
-0.4124,-0.2386,0.4026,22.96,59.78,-11.06,A
-0.4231,-0.1591,0.2772,29.19,33.95,-25.48,A
-0.4168,-0.1113,0.2489,37.24,2.66,-41.72,A
-0.407,-0.101,0.1932,45.99,-29.05,-59.36,A
-0.385,-0.0898,0.2503,53.41,-61.39,-72.38,A
-0.3421,0.0117,0.2298,63.49,-84.63,-85.54,A
-0.2874,0.0883,0.0708,78.61,-121.1,-103.81,A
-0.1791,0.2064,-0.0586,84.49,-167.37,-135.59,A
-0.0493,0.2352,0.0917,74.97,-238.98,-170.45,A
0.0883,0.3016,0.4826,31.57,-277.69,-206.85,A
0.1947,0.2323,0.6769,-36.68,-269.78,-249.2,A
0.3118,-0.0956,0.6534,-96.04,-252.42,-287.84,A
0.4216,-0.5114,0.3709,-114.87,-263.06,-295.61,A
0.5553,-0.9252,0.3558,-67.97,-316.75,-249.27,A
0.6339,-0.9589,0.8296,-20.51,-357.7,-183.75,A
0.6954,-0.8672,1.2654,-13.86,-330.82,-140.98,A
0.6895,-0.7584,1.5406,-0.07,-246.12,-146.37,A
1.0155,-1.6226,1.5274,-167.02,-148.05,-27.37,A
0.997,-0.4797,1.422,-71.89,-94.36,-166.88,A
0.7169,-1.7573,1.6402,176.68,-67.9,-47.25,A
0.7247,-1.2659,2.014,-79.66,9.38,-16.24,A
0.8535,-1.1043,1.3947,3.22,66.5,50.89,A
0.7193,-1.1278,1.2507,-7.42,93.24,77.7,A
0.6695,-0.8935,1.1678,-11.48,104.51,72.87,A
0.6076,-0.8242,0.9697,52.36,90.79,141.33,A
0.4875,-0.5319,1.1063,10.5,102.69,113.96,A
0.4241,-0.4792,1.056,-48.3,98.56,105.56,A
0.3938,-0.6827,1.2576,-76.3,127.75,103.25,A
0.3933,-0.773,1.26,-79.66,183.96,127.05,A
0.3792,-0.6378,0.8642,-71.75,211.89,147.07,A
0.2938,-0.612,0.0249,-19.39,186.9,144.06,A
0.0942,-0.4973,0.0659,56.35,58.31,111.37,A
0.0537,-0.4724,0.7891,56.56,-12.39,69.93,A
0.1474,-0.5749,1.1527,22.96,31.22,59.22,A
0.0859,-0.6651,0.8472,23.73,72.66,62.72,A
0.0561,-0.7261,0.3875,33.32,56.91,69.72,A
0.04,-0.7203,0.3562,53.83,-4.13,78.75,A
0.0405,-0.7945,0.4665,65.66,-20.09,76.16,A
0.0595,-0.7203,0.5329,64.47,-39.06,96.04,A
0.0215,-0.6285,0.4631,63.49,-50.26,101.92,A
-0.0015,-0.5402,0.6032,55.93,-74.13,95.69,A
-0.0054,-0.7442,0.9462,26.11,-65.38,91.0,A
-0.0029,-0.651,0.8111,12.18,-37.52,101.22,A
0.0083,-0.5061,0.7471,7.49,-40.32,124.32,A
-0.0044,-0.3548,0.6383,9.45,-47.25,120.96,A
-0.0185,-0.4094,0.7261,15.47,-61.74,94.15,A
0.0176,-0.3528,0.8813,17.29,-63.91,99.89,A
-0.0015,-0.2518,1.0438,15.54,-50.54,104.02,A
-0.0122,-0.1127,1.0941,8.47,-35.21,90.16,A
-0.0098,-0.0351,1.0726,-5.18,-23.38,65.24,A
0.0093,-0.1566,0.9082,-11.76,-18.06,40.46,A
0.0322,-0.2098,0.9252,2.1,-37.17,36.47,A
0.0376,-0.2455,0.8921,21.77,-47.46,24.99,A
0.0781,-0.2518,1.2395,29.05,-59.01,15.47,A
0.0927,-0.324,1.2873,30.38,-47.32,10.43,A
0.1322,-0.3392,1.4518,23.03,-12.53,23.66,A
0.1279,-0.205,1.3166,23.59,10.99,19.95,A
0.1405,-0.0464,1.2429,24.43,21.07,-6.37,A
0.1308,0.0444,1.1595,16.66,19.46,-31.57,A
0.1308,0.102,1.198,13.37,14.91,-48.02,A
0.1586,0.1723,1.3815,-2.87,20.86,-59.22,A
0.1859,0.181,1.3527,-26.32,42.35,-76.51,A
0.1967,0.1576,1.2551,-29.68,48.09,-100.1,A
0.2094,-0.0795,1.6748,-58.66,69.44,-130.34,A
0.2572,-0.1908,1.5206,-54.6,139.3,-120.96,A
0.2284,-0.3226,1.0043,-4.55,166.95,-127.12,A
0.1078,-0.5392,0.5817,30.31,138.88,-138.88,A
0.0444,-0.6627,0.5856,50.19,98.28,-145.6,A
0.039,-0.8291,0.5973,48.23,91.42,-139.44,A
0.002,-0.9404,0.4734,47.46,82.11,-122.71,A
-0.0268,-1.078,0.3148,47.53,69.16,-106.68,A
-0.0737,-1.1566,0.2977,53.2,37.8,-83.23,A
-0.0766,-1.1863,0.4421,49.35,5.81,-52.29,A
-0.0893,-1.0677,0.5305,38.85,-17.92,-22.26,A
-0.0966,-0.8501,0.6334,22.4,-33.18,-8.26,A
-0.12,-0.6642,0.8447,17.57,-48.58,-4.97,A
-0.0952,-0.509,1.0268,-19.74,-22.33,-5.46,A
-0.0444,-0.6095,0.855,14.28,-25.62,-2.1,A
-0.0429,-0.6207,0.9575,14.28,-19.88,20.3,A
-0.0547,-0.4377,1.036,8.47,-13.58,26.81,A
-0.0249,-0.3377,1.0287,-31.92,-12.88,23.31,A
-0.0156,-0.3645,0.9931,-3.22,-22.96,12.32,A
-0.0342,-0.3924,1.0599,-13.58,-18.13,12.46,A
-0.0488,-0.2904,1.178,-39.13,-7.77,19.88,A
-0.0283,-0.2181,1.0853,-15.19,4.69,2.8,A
-0.019,-0.365,0.9931,-8.75,8.68,-2.45,A
-0.0381,-0.425,0.9545,-8.19,8.05,-2.1,A
-0.02,-0.4904,0.9096,-18.9,10.99,15.05,A
-0.0268,-0.5075,0.8716,-17.64,-4.97,17.64,A
-0.0386,-0.3777,0.9531,-17.5,-7.91,2.31,A
-0.0312,-0.3802,0.9262,-26.11,-6.09,-7.14,A
-0.0307,-0.5109,0.9087,-24.64,-6.58,-1.61,A
-0.039,-0.5197,0.8633,-8.26,-4.2,7.21,A
-0.0498,-0.4543,0.9038,-2.66,-5.53,10.22,A
-0.0551,-0.4807,0.9077,-6.09,-4.9,4.13,A
-0.039,-0.5641,0.8838,-5.11,-0.49,4.13,A
-0.0434,-0.5836,0.8618,-2.52,-4.48,7.98,A
-0.042,-0.5705,0.9277,-4.06,-7.98,10.85,A
-0.0342,-0.5427,1.0268,-5.74,-1.12,17.43,A
-0.0493,-0.4948,1.0082,-3.08,9.17,18.34,A
-0.0429,-0.4553,0.9438,1.96,15.12,15.4,A
-0.0542,-0.5002,0.955,3.5,8.47,10.43,A
-0.0468,-0.51,0.9623,6.72,5.88,11.13,A
-0.0449,-0.5612,1.0653,1.54,3.99,8.82,A
-0.0434,-0.6842,1.2029,-11.48,16.8,18.83,A
-0.0547,-0.7032,1.1624,-13.23,31.92,39.13,A
-0.0727,-0.5641,1.1258,-15.54,40.88,46.69,A
-0.0815,-0.5344,1.0995,-29.89,51.94,43.68,A
-0.0908,-0.5963,0.8662,-24.29,58.73,41.86,A
-0.1191,-0.6046,0.853,-16.8,41.51,41.37,A
-0.1244,-0.5778,0.9213,-19.18,33.25,42.91,A
-0.1566,-0.629,1.1419,-27.51,31.64,38.71,A
-0.1508,-0.6754,1.2073,-42.42,53.62,52.5,A
-0.1649,-0.6695,1.2561,-52.22,75.39,64.33,A
-0.162,-0.6173,1.1156,-54.67,102.06,77.49,A
-0.2001,-0.4851,0.7847,-37.31,103.53,77.42,A
-0.2567,-0.4143,0.6032,-17.15,77.77,57.05,A
-0.3026,-0.5168,0.6451,-6.44,49.0,33.67,A
-0.2952,-0.632,0.9043,-16.24,42.91,35.0,A
-0.3172,-0.588,0.9599,-19.53,49.28,70.21,A
-0.3304,-0.5295,0.9457,-28.56,58.73,61.11,A
-0.3699,-0.4695,0.814,-28.91,59.99,54.95,A
-0.3948,-0.4851,0.8072,-28.63,56.28,41.02,A
-0.4021,-0.5109,0.6915,-13.93,51.59,30.31,A
-0.4055,-0.5348,0.6788,-4.06,46.48,25.27,A
-0.4158,-0.5856,0.6666,0.14,41.86,24.29,A
-0.4172,-0.4914,0.672,5.67,37.8,35.7,A
-0.4372,-0.4436,0.7725,4.2,33.67,36.19,A
-0.4387,-0.426,0.6954,3.92,38.64,33.04,A
-0.4509,-0.4621,0.7286,0.7,31.85,28.14,A
-0.4412,-0.4968,0.7096,-6.58,33.18,26.11,A
-0.4475,-0.5031,0.6534,-6.09,31.92,28.0,A
-0.4504,-0.5012,0.6242,-3.22,27.16,35.49,A
-0.4519,-0.4714,0.548,4.97,24.36,41.37,A
-0.466,-0.4651,0.5475,8.26,11.83,42.21,A
-0.4812,-0.4099,0.612,7.49,8.82,44.45,A
-0.4987,-0.3216,0.6251,7.42,9.94,42.21,A
-0.5114,-0.2381,0.5919,10.78,8.05,26.74,A
-0.5109,-0.2479,0.5836,4.27,2.38,6.37,A
-0.487,-0.3231,0.509,-3.5,-1.4,1.96,A
-0.467,-0.4089,0.447,-1.96,-10.5,-0.35,A
-0.4538,-0.4534,0.5065,4.83,-21.35,4.83,A
-0.449,-0.3723,0.5261,12.88,-22.33,12.95,A
-0.4519,-0.2728,0.5383,20.86,-25.62,10.01,A
-0.4431,-0.1923,0.5373,21.7,-28.77,0.07,A
-0.4348,-0.2328,0.6344,9.8,-32.55,-12.32,A
-0.4197,-0.2508,0.5388,1.12,-28.56,-15.54,A
-0.4236,-0.2528,0.4255,6.3,-40.11,-21.28,A
-0.406,-0.2103,0.3743,9.31,-58.73,-30.24,A
-0.386,-0.1401,0.2474,18.9,-81.9,-42.91,A
-0.3543,-0.1322,0.0605,31.92,-121.8,-71.12,A
-0.2743,-0.2098,0.245,31.92,-182.0,-95.27,A
-0.2001,-0.3582,0.5124,3.64,-222.46,-110.32,A
-0.0956,-0.447,0.4831,-15.82,-210.07,-101.85,A
-0.0156,-0.4626,0.2128,-7.35,-231.63,-93.03,A
0.1215,-0.4475,0.1591,-5.53,-272.37,-89.67,A
0.2772,-0.4519,0.2333,5.32,-318.43,-99.89,A
0.4124,-0.528,0.4709,-13.79,-374.99,-103.04,A
0.5597,-0.5549,0.7257,-38.78,-410.83,-109.27,A
0.6837,-0.5402,1.0746,-55.09,-444.57,-111.51,A
0.7754,-0.671,1.4323,-67.2,-425.88,-107.1,A
0.5954,-0.3118,1.6275,-91.14,-376.53,-139.44,A
0.7525,-1.1219,2.6337,-289.8,-239.89,-115.29,A
0.8345,-1.7265,1.6368,-19.32,-105.63,-68.18,A
0.814,-1.6411,2.1701,109.06,54.32,34.72,A
0.7627,-1.2464,1.8729,56.42,121.31,96.11,A
0.7027,-0.9618,1.6699,7.7,130.13,117.67,A
0.6998,-0.6544,1.3732,-2.59,172.69,140.63,A
0.5378,-0.4846,1.0102,-6.72,189.42,134.05,A
0.4075,-0.5217,1.0482,3.71,155.4,99.47,A
0.366,-0.5793,1.303,-9.73,166.67,90.51,A
0.3289,-0.832,1.5382,-21.91,210.21,99.82,A
0.4016,-0.956,1.342,38.5,286.02,122.29,A
0.1537,-0.8701,0.9087,2.03,241.43,138.74,A
0.184,-0.7081,0.9828,14.91,221.27,115.36,A
0.1069,-0.4211,0.8774,51.87,229.81,95.55,A
0.0508,-0.6056,1.0751,38.22,219.17,61.6,A
0.0205,-0.7164,0.9931,5.53,231.14,61.46,A
-0.0107,-0.7447,0.9511,-24.22,236.04,74.76,A
-0.0771,-0.6373,0.7257,-20.37,239.82,101.99,A
-0.1771,-0.6027,0.652,-5.81,223.16,92.19,A
-0.2294,-0.6271,0.4748,10.57,214.69,81.41,A
-0.2972,-0.5261,0.304,47.67,179.69,80.78,A
-0.307,-0.5627,0.367,46.83,163.66,59.92,A
-0.387,-0.3836,0.2342,61.67,131.32,75.74,A
-0.4392,-0.2957,0.3382,59.22,113.19,76.86,A
-0.4699,-0.2567,0.4055,39.2,99.33,59.29,A
-0.5168,-0.1879,0.3353,32.06,87.22,41.44,A
-0.55,-0.1796,0.3562,21.07,67.34,22.19,A
-0.5319,-0.2352,0.51,-10.01,64.89,12.95,A
-0.5651,-0.1166,0.3626,-11.62,66.78,-1.05,A
-0.568,-0.0771,0.324,-6.58,55.37,-29.61,A
-0.5685,-0.1093,0.0337,23.03,36.75,-66.36,A
-0.5524,-0.2152,0.0322,49.07,-20.37,-78.12,A
-0.5163,-0.2094,0.1728,58.45,-48.72,-66.29,A
-0.4948,-0.0615,-0.0102,85.33,-59.22,-73.92,A
-0.4407,0.1498,-0.1679,117.11,-108.71,-93.94,A
-0.3289,0.3831,0.039,111.65,-184.8,-124.32,A
-0.1776,0.547,0.264,77.14,-224.42,-170.59,A
-0.0024,0.4416,0.4397,26.81,-263.27,-275.31,A
0.2474,0.1645,0.0376,-9.52,-284.9,-368.9,A
0.4997,-0.1796,0.001,30.03,-419.23,-473.76,A
1.017,-0.6827,0.3343,10.92,-546.98,-361.06,A
0.9428,-1.0912,0.7774,0.0,-539.28,-364.56,A
0.6012,-1.7783,1.5997,18.13,-567.91,-322.21,A
0.9394,-1.7661,2.2497,-54.04,-444.15,-138.88,A
0.7022,-1.179,1.7217,-25.97,-137.83,-45.15,A
0.6095,-0.7125,1.035,23.17,-59.08,-20.16,A
0.5524,-0.5978,0.8999,31.5,-88.9,-33.46,A
0.4124,-0.8525,1.076,52.78,-66.5,-101.36,A
0.8716,-0.7154,1.159,-0.49,3.43,-65.17,A
0.6481,-0.8506,1.0746,-30.8,-21.0,-48.16,A
0.6671,-0.712,0.9457,-51.31,-22.96,-4.76,A
0.6525,-0.875,0.9906,-62.3,-7.63,39.62,A
0.6076,-0.8779,0.9384,-33.67,11.62,65.59,A
0.5856,-0.936,1.0038,30.87,58.1,90.23,A
0.5383,-0.9638,1.2424,37.24,114.1,119.0,A
0.4919,-0.873,0.9862,53.27,156.17,132.16,A
0.3743,-0.7715,0.7061,8.4,140.42,143.64,A
0.324,-0.6627,0.53,10.71,87.78,101.08,A
0.3143,-0.7696,0.6773,30.52,66.08,94.15,A
0.3192,-0.8789,0.7291,28.0,81.83,105.98,A
0.3162,-0.8647,0.5158,70.35,84.84,132.44,A
0.2445,-0.8755,0.6549,69.51,62.79,148.89,A
0.2494,-0.8711,0.8316,61.95,67.62,165.9,A
0.3079,-0.7657,0.6154,60.69,90.02,194.18,A
0.1932,-0.5051,0.3338,86.87,62.23,199.08,A
0.0956,-0.3636,0.5056,90.58,2.8,166.6,A
0.1035,-0.4592,0.7574,54.67,-7.63,129.85,A
0.0717,-0.5114,0.7276,50.68,-5.67,128.03,A
0.0664,-0.4412,0.8867,28.28,-14.14,141.54,A
0.0415,-0.2972,0.7906,18.34,-12.74,147.63,A
0.0117,-0.203,0.7593,28.28,-26.39,126.28,A
0.0102,-0.3772,1.1366,0.63,-17.99,100.03,A
0.0093,-0.3841,0.9365,-7.42,-10.64,105.35,A
-0.0122,-0.2391,0.9218,17.71,-24.22,97.86,A
-0.0224,-0.12,1.0926,18.34,-27.58,66.71,A
-0.0351,-0.205,1.1707,4.69,-15.33,43.89,A
-0.0278,-0.3826,1.2146,-9.24,1.82,39.06,A
-0.0098,-0.3553,1.0536,10.29,22.89,47.67,A
-0.0205,-0.3113,0.9877,25.06,25.48,38.01,A
-0.0234,-0.3504,0.9296,31.92,15.26,32.2,A
-0.0244,-0.3084,1.0824,29.47,9.8,24.92,A
-0.0551,-0.2455,1.1356,25.62,15.33,20.23,A
-0.0673,0.0488,1.3718,5.25,35.21,2.59,A
-0.0547,0.2474,1.383,-16.1,40.81,-35.21,A
0.0249,0.1098,1.2551,-18.97,57.96,-60.76,A
-0.0049,0.0449,1.3152,-27.09,72.1,-77.84,A
0.0259,0.2357,1.4132,-48.09,87.99,-100.66,A
0.0386,0.3231,1.283,-43.68,121.03,-144.76,A
0.0727,0.1781,1.0375,-41.44,135.03,-199.57,A
0.0854,-0.1996,0.7027,-30.31,123.83,-233.03,A
0.0976,-0.9062,0.6295,-20.16,116.34,-226.1,A
0.0244,-1.3757,0.386,24.92,96.46,-165.69,A
-0.0659,-1.3762,0.4002,61.74,63.7,-115.5,A
-0.0859,-1.2878,0.5124,47.53,32.9,-77.14,A
-0.0771,-1.0692,0.5144,33.88,13.09,-50.47,A
-0.0874,-0.913,0.4812,28.63,9.45,-33.95,A
-0.1005,-0.835,0.4714,26.11,4.97,-25.9,A
-0.1025,-0.734,0.5192,29.26,-6.09,-25.34,A
-0.1025,-0.7261,0.5949,18.69,-19.18,-35.0,A
-0.0971,-0.8886,0.8447,0.98,-33.81,-34.86,A
-0.0586,-0.995,0.9804,-0.35,-11.2,-5.74,A
-0.0849,-0.7325,0.8135,-20.51,-20.02,27.72,A
-0.0044,-0.5256,0.8989,-15.12,-29.54,41.02,A
-0.1166,-0.4704,1.1024,5.39,-8.82,38.85,A
-0.1381,-0.3377,0.9218,13.23,5.95,32.69,A
-0.1586,-0.2533,0.8301,14.21,-3.71,10.85,A
-0.1459,-0.2982,0.9594,10.5,-13.79,-9.66,A
-0.1044,-0.5212,1.0775,-7.07,-1.61,-4.13,A
-0.0947,-0.5397,0.9589,-4.76,10.29,15.26,A
-0.1064,-0.488,0.9238,-5.04,4.48,17.29,A
-0.0878,-0.6193,1.0165,-24.99,11.27,24.29,A
-0.103,-0.5885,0.8843,-23.59,16.1,40.81,A
-0.2464,-0.4548,0.793,-17.29,10.78,38.64,A
-0.1337,-0.3982,0.7788,-24.08,2.03,23.73,A
-0.1518,-0.4353,0.7764,-29.47,-12.53,9.31,A
-0.1327,-0.4695,0.8769,-42.91,-17.71,-3.92,A
-0.1298,-0.651,0.8428,-51.59,-17.43,-11.55,A
-0.1244,-0.9428,0.9765,-55.65,-22.4,5.95,A
-0.1015,-0.8789,0.9457,-37.38,-0.56,44.8,A
-0.1547,-0.7188,0.8725,-20.37,5.88,43.4,A
-0.185,-0.7379,0.8599,-27.72,4.06,43.05,A
-0.1908,-0.7042,0.8647,-2.24,1.89,33.74,A
-0.1952,-0.7237,1.0804,-6.3,1.19,34.65,A
-0.1796,-0.8276,1.3117,-24.43,15.75,38.78,A
-0.1381,-0.8852,1.3366,-40.25,43.12,53.69,A
-0.1396,-0.8467,1.0887,-32.55,61.32,72.94,A
-0.1869,-0.7257,0.9862,-11.13,55.58,75.39,A
-0.2191,-0.6798,1.039,-7.35,53.48,64.47,A
-0.2176,-0.7042,1.076,-2.66,67.76,62.09,A
-0.2401,-0.649,0.9282,3.15,80.15,73.71,A
-0.2816,-0.5836,0.8286,8.05,76.09,70.0,A
-0.3079,-0.5358,0.8223,6.93,74.83,61.74,A
-0.3148,-0.5183,0.8013,-1.26,79.87,56.49,A
-0.3489,-0.5017,0.6505,3.92,78.12,49.77,A
-0.3689,-0.4982,0.5602,10.92,72.52,43.47,A
-0.3919,-0.4436,0.487,22.4,59.43,40.74,A
-0.4094,-0.4402,0.5475,24.99,45.01,32.76,A
-0.4143,-0.4202,0.5905,22.26,43.12,33.04,A
-0.4187,-0.3953,0.5763,20.93,40.25,29.96,A
-0.4309,-0.4109,0.5812,14.0,38.5,27.86,A
-0.4377,-0.3758,0.5451,10.92,33.18,30.59,A
-0.467,-0.4153,0.6608,6.09,24.57,22.96,A
-0.4275,-0.4714,0.6734,-9.17,34.86,23.1,A
-0.4568,-0.4089,0.5412,-0.63,25.41,53.41,A
-0.4665,-0.3367,0.5529,2.31,14.56,29.26,A
-0.488,-0.307,0.4577,9.66,1.75,11.76,A
-0.4685,-0.3382,0.4524,15.54,-9.73,0.91,A
-0.4729,-0.2723,0.3938,15.68,-29.05,-10.43,A
-0.448,-0.3318,0.4724,8.12,-41.09,-20.16,A
-0.4255,-0.5514,0.7915,-8.75,-50.89,-22.19,A
-0.3548,-0.5104,0.8877,-28.77,-12.6,4.62,A
-0.3992,-0.4348,0.5817,-11.27,-5.74,7.35,A
-0.4216,-0.365,0.4992,-1.68,-21.35,-1.05,A
-0.4138,-0.285,0.4826,8.54,-26.46,-7.84,A
-0.4192,-0.2313,0.4104,17.92,-34.58,-19.39,A
-0.407,-0.205,0.3431,19.18,-52.85,-34.37,A
-0.3792,-0.203,0.2972,14.49,-80.29,-52.01,A
-0.3348,-0.1845,0.2621,11.41,-110.74,-73.36,A
-0.2694,-0.2245,0.1723,12.67,-143.57,-98.0,A
-0.205,-0.3977,0.3231,12.25,-191.31,-122.15,A
-0.062,-0.7676,0.8584,-29.12,-180.74,-101.29,A
-0.0361,-0.8779,0.5671,-8.4,-146.44,-42.21,A
-0.063,-0.6915,0.2411,41.3,-143.5,-2.52,A
-0.0224,-0.4333,0.0771,78.33,-179.27,4.27,A
0.0639,-0.2152,0.0712,98.07,-223.44,-13.86,A
0.2425,-0.1274,0.1527,93.1,-272.23,-38.71,A
0.4133,-0.1557,0.3543,66.15,-333.83,-71.12,A
0.6212,-0.245,0.6159,8.19,-392.14,-95.2,A
0.733,-0.3518,0.9697,-27.44,-463.75,-102.2,A
1.0155,-0.4494,1.6392,-12.32,-410.13,-142.8,A
1.0038,-0.974,1.4132,-157.43,-414.19,-125.16,A
0.8198,-1.4372,2.1779,-220.36,-376.25,-194.39,A
1.0414,-2.2448,2.7787,28.21,-185.29,-22.96,A
0.9072,-1.8676,3.0895,56.35,43.4,113.68,A
0.8828,-1.1073,2.1916,42.84,190.26,179.41,A
0.8081,-0.386,1.2381,45.71,241.22,166.18,A
0.629,-0.1913,1.1912,31.08,188.93,106.05,A
0.5309,-0.4704,1.384,0.91,162.89,72.73,A
0.5192,-0.673,1.3796,-13.93,203.28,87.08,A
0.4324,-0.753,1.221,12.11,221.13,97.93,A
0.3504,-0.8135,1.1907,68.74,221.2,89.95,A
0.3387,-0.6388,1.2532,8.68,253.47,110.39,A
0.2723,-0.4255,0.5422,26.46,233.17,70.56,A
0.0805,-0.4841,0.8296,55.58,157.22,17.15,A
0.0937,-0.7857,1.1639,16.8,155.89,7.0,A
0.083,-0.8072,0.9911,35.0,185.08,55.86,A
0.0434,-0.6666,0.9843,29.61,190.19,73.01,A
0.0181,-0.5866,0.8223,19.18,199.43,78.54,A
-0.0712,-0.5212,0.5832,34.65,183.61,71.47,A
-0.1108,-0.6154,0.6915,29.68,173.32,63.98,A
-0.1601,-0.5222,0.5695,41.79,167.58,71.26,A
-0.2045,-0.3143,0.4582,47.81,157.71,64.61,A
-0.2913,-0.222,0.3894,38.99,127.05,19.74,A
-0.3328,-0.1918,0.4597,19.46,98.0,20.09,A
-0.3411,-0.2113,0.5451,6.58,83.09,12.6,A
-0.3421,-0.2172,0.4982,0.91,84.49,9.17,A
-0.387,-0.2284,0.3089,11.13,64.68,3.15,A
-0.4089,-0.1806,0.2772,23.38,32.76,-3.36,A
-0.3987,-0.0449,0.347,27.58,10.5,-22.54,A
-0.408,-0.1293,0.5373,17.43,-13.23,-48.3,A
-0.3572,-0.2035,0.6471,1.12,-10.5,-50.26,A
-0.3572,-0.2011,0.5456,6.93,-10.22,-57.12,A
-0.3518,-0.2079,0.4748,11.83,-22.26,-64.26,A
-0.3328,-0.1454,0.3211,22.54,-37.66,-72.38,A
-0.3001,0.103,0.1254,39.34,-61.6,-87.5,A
-0.2289,0.327,-0.0673,49.42,-90.93,-125.65,A
-0.1396,0.2913,-0.1249,54.39,-158.55,-186.48,A
0.0444,0.2557,0.0586,41.44,-246.75,-241.15,A
0.3367,0.2664,0.2869,6.23,-306.25,-285.46,A
0.5573,0.2313,0.5924,-41.37,-342.65,-355.11,A
0.754,-0.3372,0.6788,-114.24,-381.15,-419.44,A
0.9594,-1.1024,0.7164,-123.62,-396.83,-389.76,A
0.8281,-2.0686,0.8682,-39.27,-408.94,-327.81,A
0.8594,-2.2755,2.0506,29.19,-427.98,-174.86,A
0.8164,-1.4869,2.0037,18.9,-136.57,-38.36,A
0.713,-1.0526,1.4577,9.66,-35.35,-7.91,A
0.6564,-0.792,0.937,30.8,-37.45,-16.17,A
0.7066,0.0254,0.8823,61.74,-58.24,-156.87,A
0.6359,-1.1878,1.3464,51.45,13.3,-53.41,A
0.7701,-0.7657,1.2249,-24.99,36.75,6.51,A
0.6359,-0.974,1.0199,-40.46,18.9,51.45,A
0.6124,-1.2844,1.4352,-68.11,18.13,98.21,A
0.6266,-1.6202,1.6167,-30.8,89.18,145.04,A
0.7398,-1.4806,1.3781,4.9,213.57,230.86,A
0.649,-1.0638,0.4485,70.77,240.59,292.11,A
0.4563,-0.3494,0.2816,127.82,172.06,265.65,A
0.2987,0.041,0.4148,116.48,86.59,164.15,A
0.2245,-0.0273,0.6451,66.29,68.32,71.68,A
0.1283,-0.4104,0.8408,24.57,55.58,9.03,A
0.1391,-0.8223,1.0219,-31.08,66.71,9.17,A
0.1776,-0.9731,0.6861,-48.44,89.74,69.72,A
0.1318,-0.8623,0.4109,4.83,57.75,127.68,A
0.0771,-0.8691,0.5866,51.66,28.91,135.8,A
0.0996,-0.7881,0.63,50.82,36.12,163.59,A
0.0727,-0.588,0.447,68.18,21.0,173.25,A
0.0054,-0.3655,0.3699,81.06,-15.4,151.13,A
-0.0054,-0.3143,0.63,71.89,-37.8,115.22,A
-0.0205,-0.447,0.8989,31.85,-29.47,90.37,A
-0.0093,-0.5256,0.7632,7.98,-23.8,105.14,A
-0.001,-0.3504,0.7027,14.42,-30.45,137.06,A
-0.0176,-0.3367,0.7549,19.25,-39.48,122.08,A
-0.0156,-0.3665,0.8306,22.47,-45.22,117.74,A
-0.0127,-0.303,0.8823,30.87,-47.32,122.01,A
-0.0366,-0.1484,0.9843,29.61,-47.11,109.34,A
-0.0488,-0.0195,1.0326,15.05,-41.86,81.2,A
-0.0512,-0.0298,1.118,-8.4,-37.24,49.0,A
-0.0264,-0.2635,1.035,-1.19,-20.51,37.1,A
-0.022,-0.2596,0.9648,7.35,-24.36,45.57,A
-0.0059,-0.142,1.0394,20.16,-22.96,34.37,A
-0.022,-0.1318,1.0565,21.21,-25.2,10.36,A
-0.0093,-0.1537,1.1058,10.99,-27.37,-6.23,A
0.0156,-0.1801,1.0858,4.41,-18.9,-8.33,A
0.0127,-0.2045,1.0287,3.22,-17.01,-4.9,A
-0.0078,-0.1337,1.0975,-13.3,-25.48,-7.0,A
-0.0102,-0.042,1.3396,-32.62,-19.46,-27.93,A
0.0459,-0.2162,1.5528,-49.63,30.38,-42.7,A
0.0517,-0.2464,1.3288,-26.74,63.7,-37.45,A
0.041,-0.1391,1.262,1.61,67.9,-52.29,A
0.059,0.0483,1.4372,-0.14,76.93,-81.2,A
0.0688,0.1357,1.4494,-16.8,101.01,-118.51,A
0.0839,0.1303,1.2107,-31.64,128.8,-149.45,A
0.0888,-0.0834,0.8564,-37.17,138.74,-181.3,A
0.1191,-0.2762,0.568,-32.9,120.96,-210.49,A
0.1083,-0.9218,0.4065,-21.14,96.95,-208.88,A
0.0264,-1.3415,0.4236,22.47,50.75,-149.94,A
-0.0063,-1.2,0.6588,33.6,34.79,-94.5,A
-0.0527,-1.0658,0.6881,20.65,32.2,-68.81,A
-0.0761,-1.0053,0.5592,8.47,24.43,-46.9,A
-0.1025,-0.916,0.486,13.16,10.99,-29.26,A
-0.0996,-0.8398,0.5314,21.21,0.0,-17.36,A
-0.1122,-0.7237,0.61,27.93,-8.33,-11.41,A
-0.1015,-0.7183,0.8276,11.2,-13.51,-14.98,A
-0.1074,-0.6764,0.8355,-12.32,-16.17,-4.48,A
-0.0893,-0.6544,0.7959,-14.21,-20.65,17.01,A
-0.1069,-0.6085,0.9443,-15.54,-18.97,22.61,A
-0.1025,-0.5305,0.915,-13.16,-16.66,16.38,A
-0.103,-0.5266,0.9409,-1.47,-15.82,14.0,A
-0.0903,-0.5065,1.0253,13.51,-4.2,23.03,A
-0.1147,-0.4221,0.9687,12.25,1.05,24.01,A
-0.1147,-0.3762,0.9945,-0.91,-2.66,13.93,A
-0.0864,-0.4446,1.1278,-17.22,4.13,18.48,A
-0.0727,-0.4494,1.016,-23.59,19.46,22.68,A
-0.0854,-0.4153,0.9223,-23.03,17.92,20.3,A
-0.0952,-0.4494,0.9004,-26.6,11.2,14.07,A
-0.101,-0.5148,0.8843,-27.51,8.61,14.14,A
-0.1122,-0.5212,0.8428,-17.85,5.11,7.56,A
-0.1127,-0.528,0.8374,-21.0,3.64,2.52,A
-0.1093,-0.5754,0.7608,-21.63,-2.45,2.45,A
-0.0791,-0.6744,0.8267,-22.68,-6.09,3.29,A
-0.0581,-0.7544,0.7305,-16.59,-5.39,19.18,A
-0.0547,-0.6027,0.8691,-8.33,-15.82,29.61,A
-0.0805,-0.487,0.9609,-20.58,-10.08,21.14,A
-0.1298,-0.5026,0.852,-29.54,-3.99,4.48,A
-0.1576,-0.5505,0.7998,-28.98,-6.93,-3.43,A
-0.1581,-0.5968,0.7696,-22.26,-2.94,-6.23,A
-0.1542,-0.6505,0.6573,-8.05,-3.85,-2.94,A
-0.1571,-0.6603,0.6368,9.8,-17.15,1.96,A
-0.1337,-0.5993,0.772,15.05,-25.27,5.95,A
-0.1288,-0.5207,0.8955,7.98,-26.25,-0.21,A
-0.1176,-0.5773,1.0409,-10.85,-15.82,4.2,A
-0.1225,-0.5632,0.9692,-26.6,-1.05,5.18,A
-0.1313,-0.5568,0.8389,-25.69,5.67,-1.75,A
-0.1303,-0.6495,0.7247,-8.61,2.17,-0.21,A
-0.1176,-0.6095,0.7632,8.68,-4.27,4.06,A
-0.0996,-0.5505,0.8408,11.55,-2.17,0.35,A
-0.0971,-0.6017,0.8374,4.83,-0.14,-1.12,A
-0.1078,-0.5802,0.7979,2.94,-5.39,2.73,A
-0.1171,-0.5353,0.8213,1.47,-7.91,1.54,A
-0.1191,-0.5573,0.774,2.73,-11.76,0.91,A
-0.1049,-0.5007,0.875,2.87,-16.8,-1.26,A
-0.0932,-0.5251,0.8999,-1.68,-10.22,-7.98,A
-0.0883,-0.6095,0.8789,-1.26,-6.16,-6.09,A
-0.0874,-0.5876,0.8945,0.49,-2.31,1.47,A
-0.0971,-0.5261,0.8633,0.7,2.45,1.26,A
-0.1098,-0.5104,0.7871,3.85,-2.73,-3.92,A
-0.0996,-0.5344,0.8184,1.05,-6.86,-6.86,A
-0.0937,-0.5505,0.8823,-7.28,-6.23,-8.61,A
-0.0878,-0.5968,0.8276,-7.56,-3.01,-7.21,A
-0.0825,-0.6037,0.833,-1.4,-6.65,-5.11,A
-0.0825,-0.6154,0.8433,1.61,-5.46,-5.39,A
-0.0786,-0.6422,0.8677,3.78,-2.17,-2.73,A
-0.0937,-0.6324,0.8067,-1.19,-0.56,2.59,A
-0.0981,-0.5871,0.7676,3.15,-5.74,2.24,A
-0.101,-0.5563,0.8013,2.87,-9.52,-1.89,A
-0.1025,-0.5651,0.8076,0.84,-11.76,-5.67,A
-0.0903,-0.5915,0.8374,-0.98,-13.37,-7.77,A
-0.0791,-0.6334,0.875,-1.26,-13.09,-7.0,A
-0.0737,-0.6339,0.8813,-1.12,-9.87,-4.55,A
-0.0693,-0.6417,0.856,1.26,-7.7,-2.38,A
-0.0581,-0.649,0.855,4.41,-6.79,-0.21,A
-0.0542,-0.6388,0.852,10.15,-7.42,0.91,A
-0.0556,-0.61,0.8701,10.08,-7.49,0.14,A
-0.0571,-0.6037,0.8291,9.94,-7.56,-2.73,A
-0.0605,-0.6242,0.8208,13.72,-10.99,-2.31,A
-0.0595,-0.6051,0.8696,12.25,-9.73,-2.03,A
-0.0556,-0.6027,0.8969,9.38,-5.32,-2.94,A
-0.0508,-0.6285,0.873,7.77,-2.66,-3.01,A
-0.0556,-0.6422,0.7945,14.21,-5.04,0.14,A
-0.0508,-0.5934,0.8281,17.29,-7.98,0.63,A
-0.0512,-0.5783,0.833,15.47,-8.05,-1.68,A
-0.0561,-0.5973,0.852,9.73,-9.31,-2.24,A
-0.0537,-0.6041,0.8403,4.76,-10.15,0.7,A
-0.062,-0.5846,0.9975,1.12,-11.69,2.52,A
-0.059,-0.5788,0.8911,0.7,-8.26,7.07,A
-0.059,-0.529,0.8935,2.17,-3.15,6.16,A
-0.0634,-0.5217,0.8613,2.38,-2.38,1.75,A
-0.0595,-0.5529,0.8516,2.31,-3.78,0.98,A
-0.0556,-0.547,0.8701,0.21,-4.13,0.35,A
-0.0551,-0.5832,0.8296,-1.54,-5.74,1.26,A
-0.06,-0.5661,0.8828,-0.49,-10.01,4.2,A
-0.0615,-0.5353,0.8984,-2.24,-5.18,2.94,A
-0.0644,-0.5617,0.8394,2.03,-4.69,1.33,A
-0.063,-0.5397,0.856,6.02,-6.86,0.49,A
-0.0576,-0.5295,0.8906,4.76,-4.13,-3.57,A
-0.0566,-0.571,0.8486,4.06,-3.15,-3.78,B
-0.0586,-0.5739,0.8345,4.69,-5.32,-4.06,B
-0.0649,-0.5915,0.8237,3.29,-5.95,-3.78,B
-0.0742,-0.5871,0.8301,4.69,-6.86,-1.96,B
-0.0781,-0.5827,0.8599,2.03,-4.2,-1.68,B
-0.08,-0.5773,0.8184,2.17,-0.63,-0.77,B
-0.0883,-0.5705,0.7623,5.88,-3.5,-1.89,B
-0.0776,-0.5978,0.7935,6.23,-8.26,-1.96,B
-0.0703,-0.5822,0.8345,6.79,-11.06,1.12,B
-0.0639,-0.5348,0.8686,1.96,-10.99,-2.03,B
-0.0473,-0.5617,0.9067,-3.08,-9.31,-5.18,B
-0.0312,-0.5919,0.8901,-4.2,-6.02,-5.32,B
-0.0166,-0.6778,0.9511,-4.41,-8.61,-2.8,B
-0.0073,-0.6969,0.995,-3.29,-1.75,11.06,B
-0.0132,-0.6041,0.954,2.59,3.22,17.57,B
-0.0332,-0.5295,0.8945,4.76,1.82,14.07,B
-0.0454,-0.4963,0.9096,9.17,-1.96,6.23,B
-0.0386,-0.488,0.9784,8.12,-0.91,-5.11,B
-0.0312,-0.5895,1.0053,3.71,7.14,-10.71,B
-0.0405,-0.6505,0.978,4.97,11.76,-7.84,B
-0.0429,-0.7422,1.0438,-1.89,19.74,1.4,B
-0.062,-0.7754,0.9477,5.11,26.32,16.73,B
-0.0756,-0.7442,0.9804,13.65,28.07,27.44,B
-0.0942,-0.6559,0.975,18.41,38.08,36.4,B
-0.1513,-0.5344,0.8672,24.71,40.6,30.17,B
-0.1771,-0.4709,0.8184,17.57,30.1,20.16,B
-0.1806,-0.5563,0.9941,0.84,21.56,9.31,B
-0.1488,-0.7188,1.0575,-13.79,39.41,23.03,B
-0.1615,-0.6403,0.9223,-2.59,48.16,40.95,B
-0.1698,-0.5671,0.8945,-3.36,45.01,37.94,B
-0.1815,-0.5588,0.8374,1.4,35.14,28.56,B
-0.1771,-0.5861,0.8672,2.52,34.23,18.34,B
-0.164,-0.63,0.7979,8.4,32.83,12.46,B
-0.1518,-0.6827,0.7613,15.12,26.18,11.2,B
-0.1537,-0.713,0.7247,22.26,15.05,14.28,B
-0.1449,-0.7891,1.0731,7.77,13.72,20.23,B
-0.1347,-0.7471,0.9482,7.77,37.31,43.68,B
-0.1796,-0.5939,0.8218,17.64,36.96,54.18,B
-0.1952,-0.4543,0.8028,14.7,30.1,45.92,B
-0.2191,-0.4114,0.8154,12.32,24.36,30.17,B
-0.2064,-0.5319,0.9531,-3.64,32.34,22.33,B
-0.1952,-0.547,0.8935,-8.4,45.36,35.28,B
-0.204,-0.4904,0.8184,-3.64,47.25,42.98,B
-0.2186,-0.4568,0.7652,-0.77,47.6,39.34,B
-0.2406,-0.4753,0.7388,2.8,44.03,36.54,B
-0.2601,-0.4573,0.693,9.31,39.06,37.1,B
-0.285,-0.406,0.61,14.35,31.92,33.25,B
-0.3162,-0.3928,0.6261,11.9,16.59,23.8,B
-0.3201,-0.3553,0.6476,4.55,8.89,19.88,B
-0.3416,-0.3065,0.6656,-17.92,4.9,13.3,B
-0.3416,-0.3216,0.6608,-5.81,1.61,2.03,B
-0.325,-0.4685,0.7237,-13.09,-1.82,-1.75,B
-0.3148,-0.5441,0.8413,-21.63,5.32,6.72,B
-0.3065,-0.5051,0.7139,-18.48,18.13,20.58,B
-0.3289,-0.4412,0.5749,-2.31,8.26,21.35,B
-0.3304,-0.3201,0.6085,5.74,-6.51,14.98,B
-0.327,-0.2464,0.7325,-0.21,-12.11,-0.56,B
-0.2991,-0.2918,0.7232,-12.18,-7.84,-9.87,B
-0.2948,-0.3255,0.6505,-14.7,-11.9,-18.2,B
-0.2957,-0.4065,0.6285,-17.99,-19.46,-26.04,B
-0.2874,-0.4563,0.5666,-12.6,-29.19,-25.55,B
-0.2845,-0.3894,0.4587,-0.49,-37.94,-27.37,B
-0.2943,-0.2899,0.2655,17.29,-59.01,-36.33,B
-0.2743,-0.0527,0.1527,34.02,-88.55,-59.71,B
-0.2552,0.0386,0.0888,38.78,-127.75,-94.64,B
-0.141,0.2425,-0.0068,45.22,-154.49,-135.66,B
0.0551,0.0981,0.1425,28.63,-227.22,-206.5,B
0.224,-0.1747,0.3694,1.05,-315.21,-251.44,B
0.4431,-0.4046,0.5719,-32.76,-347.41,-261.59,B
0.5666,-0.692,0.6803,-45.92,-356.23,-252.98,B
0.6861,-0.9872,0.632,-24.92,-355.11,-222.46,B
0.7037,-1.1746,0.853,24.71,-366.03,-170.17,B
0.6974,-1.2639,1.2473,60.76,-350.49,-123.97,B
0.7291,-1.3269,1.7378,73.71,-308.21,-68.53,B
0.7554,-1.0536,1.71,43.26,-158.34,-11.2,B
0.834,-0.9882,1.627,-40.88,-50.4,51.66,B
0.6446,-0.5246,0.9023,-82.6,-78.4,-21.28,B
0.6598,-0.7091,1.0575,52.71,-34.72,6.72,B
0.6852,-0.7618,1.403,24.08,-25.62,39.06,B
0.6554,-0.7369,1.3718,-10.71,18.2,56.98,B
0.6998,-0.8052,1.4391,53.06,89.18,69.86,B
0.6154,-0.8594,1.4894,-25.76,100.87,86.45,B
0.672,-0.9316,1.4855,-3.29,154.21,118.86,B
0.651,-0.71,1.0756,10.92,210.7,145.74,B
0.5217,-0.426,0.7115,30.31,173.81,137.55,B
0.4494,-0.243,0.5905,42.49,122.15,87.5,B
0.3465,-0.1835,0.6856,30.24,55.44,32.83,B
0.3128,-0.3987,0.9667,5.95,32.69,-3.99,B
0.2977,-0.67,1.2322,-25.34,50.54,1.89,B
0.2884,-0.7915,1.2107,-57.82,84.56,33.11,B
0.2786,-0.7462,0.9233,-38.36,97.93,60.13,B
0.2416,-0.6783,0.7725,-1.12,92.68,66.15,B
0.1991,-0.6891,0.8345,18.97,79.94,68.95,B
0.1747,-0.6378,0.9365,19.88,85.26,74.9,B
0.1298,-0.5993,0.9789,9.8,96.88,76.44,B
0.122,-0.6339,1.0038,-15.26,112.28,71.05,B
0.102,-0.7793,0.8974,-17.64,123.34,79.8,B
0.0786,-0.7623,0.8174,3.92,122.29,98.56,B
0.0527,-0.6471,0.753,19.25,120.12,100.1,B
0.0034,-0.8067,0.8164,29.61,108.43,92.82,B
-0.0151,-0.6886,0.7257,49.0,106.54,113.75,B
-0.0791,-0.4807,0.7403,64.54,93.38,105.28,B
-0.1322,-0.3162,0.8169,53.97,81.9,78.33,B
-0.1674,-0.2279,0.8574,37.87,72.31,52.15,B
-0.1708,-0.3792,0.8877,17.15,71.54,19.39,B
-0.1806,-0.5148,0.8511,11.83,68.18,17.64,B
-0.1913,-0.6681,0.7788,19.11,60.2,25.62,B
-0.185,-0.6324,0.8291,33.6,53.34,55.44,B
-0.2006,-0.4104,0.8608,41.02,55.51,65.94,B
-0.2308,-0.2294,0.9101,34.65,51.45,48.51,B
-0.2596,-0.1606,0.9906,15.82,49.63,27.65,B
-0.2582,-0.1318,1.016,-6.23,58.59,8.61,B
-0.2606,-0.1625,0.8594,-17.29,63.98,-6.79,B
-0.2679,-0.1435,0.7183,-18.9,56.7,-19.32,B
-0.2679,-0.1088,0.7139,-9.8,39.27,-37.03,B
-0.2367,-0.205,0.9726,-22.75,39.2,-56.21,B
-0.1981,-0.3675,0.874,-24.85,59.15,-50.68,B
-0.2181,-0.3743,0.7452,-11.69,57.4,-44.31,B
-0.2396,-0.2547,0.7579,-11.48,49.14,-49.49,B
-0.2391,-0.0981,0.8247,-23.66,54.39,-69.93,B
-0.242,-0.1122,0.6622,-37.94,61.25,-99.47,B
-0.2557,-0.2767,0.466,-43.4,52.64,-119.07,B
-0.2533,-0.4002,0.3065,-40.39,31.29,-125.02,B
-0.2655,-0.5007,0.2538,-22.75,1.82,-121.59,B
-0.2679,-0.5622,0.3323,-18.55,-19.88,-115.78,B
-0.2508,-0.5783,0.3148,-16.66,-27.44,-110.39,B
-0.243,-0.7588,0.3767,-22.33,-36.4,-101.85,B
-0.2255,-0.876,0.2743,-19.95,-33.11,-80.5,B
-0.2435,-0.978,0.1415,-5.46,-46.62,-59.29,B
-0.2372,-1.0048,0.1303,11.9,-63.7,-35.0,B
-0.224,-0.9838,0.0493,31.78,-75.11,-17.15,B
-0.203,-0.9453,0.0551,49.98,-102.34,-0.42,B
-0.1825,-0.8198,0.1118,64.12,-140.35,3.08,B
-0.1474,-0.6061,0.4597,62.02,-178.22,-3.5,B
-0.1015,-0.5314,0.9082,14.7,-180.74,-28.49,B
-0.0493,-0.7559,1.1292,-38.43,-152.18,-44.8,B
-0.0137,-0.9335,1.1712,-67.9,-116.48,-29.33,B
0.0356,-1.1541,0.9272,-3.5,-89.11,13.72,B
0.0517,-1.0277,0.9521,10.92,-83.51,36.4,B
0.0903,-0.7998,0.9189,51.38,-107.94,42.35,B
0.1176,-0.5983,1.3479,80.22,-107.59,32.69,B
0.1523,-0.5314,1.7773,32.62,-73.64,38.01,B
0.1625,-0.4924,1.6363,-13.3,-18.48,46.69,B
0.1205,-0.4133,1.3888,-35.63,-0.07,42.42,B
0.1205,-0.4402,1.3991,-49.21,1.82,21.77,B
0.1464,-0.5719,1.3996,-55.79,17.78,18.76,B
0.1298,-0.652,1.2698,-36.96,32.2,28.98,B
0.1142,-0.7198,1.1878,-23.94,45.36,38.71,B
0.0859,-0.672,1.1004,-9.52,54.39,50.54,B
0.0405,-0.5973,1.1175,-2.24,56.21,49.98,B
0.0386,-0.5183,1.1214,-9.66,70.63,43.75,B
-0.0029,-0.4631,0.934,-12.04,82.46,24.71,B
-0.0493,-0.5075,0.7925,-8.82,77.14,1.26,B
-0.0527,-0.6066,0.7437,-4.9,73.57,-10.43,B
-0.0732,-0.6154,0.6525,8.61,71.61,-12.88,B
-0.0839,-0.5168,0.6544,11.48,62.44,-22.4,B
-0.0849,-0.5314,0.5348,13.23,53.76,-35.07,B
-0.0961,-0.7476,0.7427,19.11,47.74,-31.01,B
-0.0991,-0.6895,0.732,6.79,58.94,-9.24,B
-0.1293,-0.5495,0.6329,0.63,55.23,-12.18,B
-0.1464,-0.4875,0.57,-3.29,46.55,-22.82,B
-0.1566,-0.5065,0.4958,-4.97,39.55,-33.6,B
-0.1688,-0.5231,0.3967,4.97,27.65,-41.09,B
-0.1771,-0.5207,0.3836,14.91,9.31,-49.14,B
-0.1679,-0.5104,0.368,19.67,-2.31,-58.59,B
-0.1708,-0.5383,0.3138,25.41,-22.05,-65.94,B
-0.1757,-0.5114,0.3494,22.33,-44.8,-79.73,B
-0.1474,-0.6364,0.5061,10.99,-48.37,-86.45,B
-0.121,-0.7706,0.4846,9.73,-36.54,-71.26,B
-0.1039,-0.7998,0.3709,21.07,-53.55,-53.34,B
-0.0888,-0.7457,0.3372,26.95,-44.59,-43.96,B
-0.0464,-0.7286,0.3406,23.8,-53.41,-45.43,B
-0.0478,-0.8316,0.3001,47.81,-61.04,-42.21,B
-0.0795,-0.8481,0.3406,24.78,-92.05,-55.93,B
-0.0454,-1.0209,0.4729,34.51,-97.65,-47.53,B
-0.0429,-1.0795,0.5627,44.94,-79.24,-24.71,B
-0.0312,-1.0243,0.4329,70.7,-52.22,-5.6,B
0.0078,-0.9296,0.3211,98.84,-43.4,-6.16,B
0.0756,-0.9877,0.3836,104.72,-84.07,3.92,B
0.2152,-1.0956,0.6754,85.47,-123.9,47.32,B
0.2601,-0.835,1.0892,55.44,-161.56,102.55,B
0.2357,-0.4168,1.5226,9.94,-158.9,115.36,B
0.1947,-0.1547,1.7187,-71.82,-106.26,49.28,B
0.3123,-0.3548,1.6153,-76.86,-71.26,61.6,B
0.2513,-0.6486,1.4396,-57.54,-56.07,34.37,B
0.3357,-0.652,1.5753,-39.69,-42.0,82.95,B
0.1825,-0.4743,1.7426,-46.34,0.63,105.56,B
0.2479,-0.1337,1.7422,-278.04,20.09,141.26,B
0.306,-0.2586,1.018,-0.98,11.27,34.23,B
0.2318,-0.387,1.3757,106.82,7.63,-24.78,B
0.2108,-0.326,1.2507,80.43,58.52,-30.45,B
0.1469,-0.4192,0.8218,82.67,41.51,-52.78,B
0.1425,-0.549,0.9989,112.91,21.7,-41.16,B
0.1606,-0.4446,1.0692,52.85,37.66,-24.92,B
0.121,-0.4333,0.9706,-12.25,37.87,-11.83,B
0.0937,-0.5485,0.7671,-38.85,34.09,-12.18,B
0.0883,-0.6154,0.6632,-51.1,23.45,-4.69,B
0.0595,-0.6978,0.6349,-36.47,15.19,-3.15,B
0.0478,-0.7164,0.6461,-29.68,12.32,3.43,B
0.0327,-0.6803,0.6817,-21.77,3.99,10.71,B
0.021,-0.6378,0.6788,-14.42,6.72,2.73,B
0.0176,-0.6359,0.6959,-7.91,4.27,-2.94,B
0.0483,-0.6886,0.7017,-3.29,0.42,-3.36,B
0.0405,-0.6002,0.7022,-16.94,-7.63,-9.52,B
0.0581,-0.609,0.8154,-3.85,-23.8,-15.4,B
0.0791,-0.6476,0.9882,-11.34,-17.71,-18.69,B
0.0854,-0.7003,1.0268,-15.05,-3.85,-12.53,B
0.0732,-0.6593,0.9697,-12.32,7.63,-5.6,B
0.0693,-0.6154,0.9614,-12.32,11.27,-5.32,B
0.0747,-0.5876,0.9335,-11.2,17.5,-9.24,B
0.0756,-0.6163,0.9008,-14.63,21.7,-15.05,B
0.063,-0.7315,0.8179,-9.94,16.31,-15.05,B
0.0717,-0.7871,0.9174,-1.12,4.69,-4.83,B
0.0771,-0.7198,0.9819,-4.97,9.31,1.33,B
0.0771,-0.6964,0.9457,-7.84,21.14,-1.12,B
0.06,-0.774,0.9423,-14.7,28.56,-2.87,B
0.059,-0.8272,0.8721,-12.67,38.71,8.12,B
0.0395,-0.7706,0.774,4.62,40.53,15.05,B
0.0215,-0.7291,0.8545,6.93,31.57,12.74,B
0.0449,-0.8286,0.977,-10.99,44.03,21.49,B
0.0337,-0.7998,0.8477,-8.47,57.68,33.6,B
0.0049,-0.753,0.732,-4.48,49.49,33.81,B
-0.0244,-0.711,0.7715,-4.62,31.43,29.05,B
-0.0127,-0.856,1.0795,-29.12,33.6,30.24,B
0.0024,-0.8706,0.9292,-26.46,70.07,52.15,B
-0.0742,-0.8076,0.5885,11.2,56.7,61.81,B
-0.1108,-0.6715,0.6446,26.74,31.57,55.79,B
-0.1327,-0.6051,0.8272,28.98,26.25,39.97,B
-0.1225,-0.771,1.0311,6.23,42.28,37.59,B
-0.1308,-0.8408,0.875,5.46,60.76,53.55,B
-0.1606,-0.7413,0.6974,18.34,58.24,62.58,B
-0.1952,-0.6373,0.6759,30.66,41.3,56.35,B
-0.2308,-0.5744,0.7569,33.67,24.29,41.37,B
-0.2157,-0.6456,0.9111,14.42,26.67,32.13,B
-0.2186,-0.69,0.7769,10.85,29.26,36.4,B
-0.2298,-0.6481,0.7208,13.44,18.34,37.24,B
-0.2123,-0.6695,0.835,5.74,21.91,34.72,B
-0.2128,-0.6725,0.7871,6.79,31.08,39.9,B
-0.2338,-0.6993,0.8589,7.42,33.18,44.94,B
-0.2303,-0.6227,0.835,3.78,46.34,54.67,B
-0.2464,-0.53,0.692,3.08,52.64,50.26,B
-0.2552,-0.6066,0.5973,5.18,38.78,41.79,B
-0.2542,-0.6041,0.6183,6.93,27.65,45.29,B
-0.2547,-0.5856,0.6617,3.92,27.79,52.22,B
-0.2835,-0.5065,0.568,10.29,29.96,58.73,B
-0.3065,-0.3997,0.4939,33.53,18.69,53.76,B
-0.3338,-0.3621,0.5514,15.54,6.79,39.83,B
-0.3304,-0.3509,0.673,0.7,6.44,30.94,B
-0.3162,-0.3445,0.6583,2.31,12.25,26.53,B
-0.324,-0.3709,0.5871,0.28,11.55,25.2,B
-0.3396,-0.4934,0.5446,1.47,2.1,20.51,B
-0.3231,-0.4914,0.7232,-2.66,4.62,19.18,B
-0.3089,-0.5129,0.6407,7.7,19.32,34.58,B
-0.3299,-0.387,0.5568,21.56,19.18,39.97,B
-0.3499,-0.2806,0.5334,22.47,10.08,27.86,B
-0.3611,-0.1918,0.5266,19.32,-1.75,12.53,B
-0.368,-0.1566,0.5373,13.51,-10.5,-6.51,B
-0.3436,-0.2235,0.4412,12.95,-18.41,-23.66,B
-0.3357,-0.3411,0.4333,22.19,-44.1,-29.05,B
-0.2957,-0.283,0.4729,28.35,-57.96,-32.62,B
-0.2938,-0.1801,0.4119,38.36,-70.84,-46.13,B
-0.2518,-0.0161,0.2411,42.63,-91.63,-73.29,B
-0.1518,0.182,0.0327,53.34,-125.44,-104.79,B
0.0093,0.3826,-0.1952,62.44,-151.55,-148.19,B
0.2489,0.528,-0.3933,112.63,-286.79,-247.66,B
0.6198,0.3035,0.1752,84.35,-488.6,-364.0,B
1.0863,-0.2123,0.6183,-24.85,-569.94,-413.91,B
1.219,-1.1834,0.8686,-48.86,-590.24,-363.93,B
0.9721,-2.5732,2.2868,27.02,-723.24,-261.66,B
1.1458,-1.8271,2.3731,17.85,-295.4,-31.15,B
0.9443,-1.0643,1.5226,5.88,-68.67,19.74,B
0.7603,-0.6622,0.9326,46.27,-95.69,4.55,B
0.7842,-0.4089,1.1346,53.9,-162.82,-15.61,B
0.815,-0.4011,1.4699,-24.43,-77.63,-11.34,B
0.7462,-0.4475,1.1356,-105.7,-0.7,13.86,B
0.6276,-0.608,0.6163,-73.5,-18.69,6.3,B
0.7296,-0.5007,1.3498,27.58,66.71,-19.53,B
0.7491,-0.6095,0.9467,-6.79,107.59,-29.75,B
0.6398,-0.6856,0.6481,74.34,63.14,-18.41,B
0.6398,-0.5768,0.876,106.05,52.08,16.52,B
0.5817,-0.4865,0.8281,86.45,57.61,7.14,B
0.5431,-0.4119,0.7174,57.75,50.82,10.71,B
0.5261,-0.3553,0.795,33.11,34.86,6.58,B
0.5358,-0.4924,0.9609,-3.29,25.69,15.47,B
0.5607,-0.6193,1.1673,-35.91,50.89,32.48,B
0.5836,-0.7359,1.2483,-73.78,94.85,64.26,B
0.57,-0.8642,1.2127,-102.76,139.72,108.01,B
0.3841,-0.835,1.0599,-87.71,143.29,141.4,B
0.4577,-0.8823,1.2625,-83.72,130.62,159.25,B
0.527,-0.8608,1.2483,-96.39,187.25,187.67,B
0.5197,-0.6212,0.8086,-56.56,222.32,214.06,B
0.385,-0.5378,0.9501,-41.51,199.01,189.14,B
0.4216,-0.6051,0.9404,-55.3,214.76,172.97,B
0.3309,-0.8638,0.8447,-39.13,219.8,175.91,B
0.283,-0.8642,0.6061,50.4,216.65,199.92,B
0.1025,-0.529,0.5187,72.24,178.15,202.3,B
0.0244,-0.4665,0.8784,65.66,148.33,156.1,B
-0.019,-0.5246,1.0712,43.05,166.18,137.41,B
-0.0483,-0.5573,0.9692,33.46,192.36,135.31,B
-0.1078,-0.5334,0.4963,55.93,196.0,142.17,B
-0.2172,-0.2674,0.4231,82.46,150.5,136.22,B
-0.3074,-0.081,0.5407,80.92,110.6,87.85,B
-0.324,-0.2211,0.8438,46.62,94.22,43.12,B
-0.3802,-0.304,0.6778,34.86,96.04,35.63,B
-0.4221,-0.185,0.5383,23.73,68.11,28.21,B
-0.4314,-0.2908,0.7213,16.59,46.83,6.93,B
-0.3743,-0.4202,1.1819,-30.31,88.27,18.55,B
-0.3743,0.0268,1.2185,-60.34,129.43,26.46,B
-0.388,0.4177,1.2693,-95.41,197.26,-28.14,B
-0.3772,0.4978,1.0341,-136.29,255.71,-106.54,B
-0.327,0.3314,0.5026,-167.02,286.58,-202.93,B
-0.2386,-0.1606,0.367,-188.02,280.42,-252.14,B
-0.2284,-0.429,0.083,-157.15,262.36,-261.38,B
-0.2416,-0.7052,-0.3211,-94.64,210.77,-254.17,B
-0.3362,-0.8891,-0.489,-50.33,133.21,-235.76,B
-0.2996,-1.0551,-0.4714,-8.33,43.4,-203.0,B
-0.2577,-0.876,-0.5344,50.4,-2.24,-160.3,B
-0.2635,-0.6881,-0.4841,114.66,-76.23,-156.03,B
-0.1806,-0.7183,-0.4387,152.39,-154.21,-165.41,B
-0.0722,-0.7715,-0.3021,188.65,-245.49,-172.83,B
-0.1078,-1.462,0.203,185.71,-346.01,-150.15,B
0.1025,-1.7348,0.5329,144.41,-323.33,-54.53,B
-0.0234,-1.7944,0.5895,154.91,-334.04,28.91,B
0.1879,-1.6582,0.325,184.73,-343.07,116.55,B
0.2923,-0.8291,0.7393,205.8,-368.83,214.41,B
0.2479,0.0234,1.1424,193.9,-313.39,197.82,B
0.1864,0.4929,1.3039,104.86,-230.23,100.66,B
-0.0215,-0.0093,1.3161,64.33,-179.69,-20.93,B
0.0791,-0.5607,1.8134,-64.33,-106.33,-30.17,B
0.1401,-0.7813,1.6636,-59.36,-62.09,-36.05,B
0.1806,-1.0804,1.7441,-39.06,12.53,5.25,B
0.1747,-1.0282,1.5845,23.8,98.91,58.31,B
0.0932,-0.6612,1.3576,8.75,128.17,72.45,B
0.083,-0.3035,1.2664,-53.48,167.3,61.74,B
0.0054,-0.3362,1.2849,-90.79,202.16,23.66,B
-0.0156,-0.5226,0.9872,-135.66,225.68,8.89,B
-0.0454,-0.6061,0.6681,-142.24,210.21,9.17,B
-0.1303,-0.6456,0.6368,-137.97,189.0,3.99,B
-0.1405,-0.6354,0.5905,-121.31,188.3,3.5,B
-0.184,-0.6778,0.4221,-81.48,175.21,-4.2,B
-0.1972,-0.4763,0.4802,-52.43,173.25,-10.29,B
-0.2054,-0.425,0.5807,-64.4,172.83,-50.05,B
-0.2147,-0.4138,0.3689,-67.9,170.8,-84.91,B
-0.2318,-0.6559,0.2333,-1.68,164.01,-107.03,B
-0.2367,-0.8516,0.0869,16.87,122.71,-107.45,B
-0.185,-0.8501,0.0698,38.64,69.44,-107.87,B
-0.2035,-0.7979,0.0893,56.28,41.86,-116.34,B
-0.1488,-0.7452,-0.1,87.99,-0.49,-117.04,B
-0.083,-0.5002,-0.1664,120.61,-62.58,-119.49,B
-0.0844,-0.55,-0.0303,142.59,-134.26,-143.43,B
-0.0122,-0.6978,0.1176,143.64,-202.58,-170.31,B
0.0976,-0.8023,0.1503,157.43,-248.85,-168.14,B
0.2372,-0.9589,0.1405,181.3,-294.07,-145.04,B
0.3362,-1.0414,0.1254,224.49,-351.54,-98.49,B
0.467,-0.9965,0.3509,253.89,-399.14,-53.9,B
0.5636,-1.0887,0.3172,269.08,-427.7,-11.34,B
0.5129,-0.9135,0.8115,343.56,-504.35,26.04,B
0.7462,-0.9282,1.5992,276.57,-474.67,69.16,B
0.9409,-0.7852,2.1887,140.56,-288.82,145.74,B
0.6705,-0.6237,1.9993,119.0,-95.9,148.54,B
0.6212,-0.7769,1.7807,-67.48,42.84,183.05,B
0.6012,-0.4392,1.2698,-14.91,88.06,172.76,B
0.5446,-0.1649,1.4147,51.45,77.56,124.39,B
0.5056,-0.2957,1.0843,17.64,136.43,119.0,B
0.3675,-0.3841,1.1771,7.35,105.63,126.98,B
0.3514,-0.427,0.792,-18.06,136.78,154.56,B
0.2557,-0.1889,0.7086,-4.62,98.0,134.47,B
0.1947,-0.1459,0.7418,-27.3,75.32,85.68,B
0.1454,-0.3084,0.7442,-47.46,55.51,52.29,B
0.1293,-0.5207,0.7276,-55.51,46.41,41.23,B
0.1205,-0.5529,0.5324,-41.93,40.53,39.13,B
0.0952,-0.4782,0.5144,-16.73,21.77,24.01,B
0.0644,-0.4465,0.5348,-3.22,-12.18,-8.19,B
0.0503,-0.3509,0.7266,0.7,-29.89,-28.21,B
0.0917,-0.53,0.5485,-21.14,-53.83,-48.79,B
0.0366,-0.7852,0.8286,7.98,-45.08,-26.18,B
0.1366,-0.5651,0.7788,-32.69,-43.68,-57.12,B
0.183,-0.4982,0.5973,-42.77,-58.73,-79.73,B
0.2308,-0.6412,0.6686,-15.96,-70.77,-85.54,B
0.2069,-0.8135,0.9501,8.47,-72.17,-73.08,B
0.2425,-0.9745,1.1278,16.73,-38.78,-47.95,B
0.2557,-0.9887,1.1468,33.25,9.66,0.84,B
0.2342,-0.7662,1.0072,40.25,39.27,18.69,B
0.2333,-0.5915,0.9013,44.73,42.77,9.52,B
0.2181,-0.6407,0.9941,35.35,44.8,-2.45,B
0.2079,-0.752,1.1936,11.48,61.39,10.01,B
0.2567,-0.7798,1.1849,-20.02,109.34,38.01,B
0.2298,-0.8369,1.015,-29.4,137.62,69.44,B
0.2357,-0.8384,0.9048,-23.94,131.18,75.32,B
0.1923,-1.0248,1.0843,13.65,125.16,94.36,B
0.2206,-1.1326,1.279,-23.66,189.35,134.89,B
0.2181,-0.7515,0.7096,13.02,194.81,152.39,B
0.0459,-0.366,0.4524,74.9,161.84,147.14,B
-0.0571,-0.3543,0.8481,60.34,135.73,95.83,B
-0.0791,-0.5758,1.2068,-5.88,146.16,74.55,B
-0.0381,-0.5544,1.0189,-61.39,181.51,101.01,B
-0.1035,-0.5617,0.3553,-56.35,191.59,96.32,B
-0.2523,-0.6037,0.0708,-8.26,110.81,82.67,B
-0.303,-0.5597,0.588,6.37,49.28,75.18,B
-0.2908,-0.774,0.7066,4.2,59.71,65.94,B
-0.324,-0.6261,0.6422,25.83,57.61,97.65,B
-0.385,-0.4226,0.6934,25.06,51.24,82.25,B
-0.3953,-0.4451,0.8184,4.55,54.04,60.55,B
-0.425,-0.3733,0.6778,-3.99,55.23,47.81,B
-0.4563,-0.3719,0.5841,-5.25,47.53,27.3,B
-0.4538,-0.428,0.5022,-10.15,35.28,14.56,B
-0.4709,-0.5475,0.5783,-14.84,13.86,9.03,B
-0.4558,-0.5939,0.6686,-24.08,13.79,14.77,B
-0.4636,-0.6407,0.7764,-28.42,14.0,21.42,B
-0.468,-0.6334,0.6871,-32.69,22.05,28.63,B
-0.4826,-0.5309,0.5651,-35.7,15.75,40.81,B
-0.4851,-0.4709,0.5661,4.83,12.04,27.72,B
-0.4919,-0.4168,0.5104,16.31,12.53,24.43,B
-0.4973,-0.4626,0.59,8.61,-3.01,18.13,B
-0.4948,-0.3733,0.5954,8.75,-4.13,10.29,B
-0.4948,-0.4304,0.6949,10.5,-9.45,-9.73,B
-0.4363,-0.6242,0.9174,-11.27,3.99,-11.76,B
-0.4582,-0.5627,0.6281,-1.96,21.98,-1.26,B
-0.4646,-0.5075,0.3411,36.12,5.67,-3.99,B
-0.4665,-0.3528,0.426,53.97,-24.29,-10.64,B
-0.4709,-0.2499,0.5719,51.1,-37.38,-32.34,B
-0.4285,-0.1332,0.4665,54.11,-38.29,-52.99,B
-0.3938,-0.0259,0.0996,65.59,-65.73,-80.85,B
-0.3143,0.1864,-0.0239,77.28,-122.5,-121.94,B
-0.0068,0.2176,0.0795,58.24,-170.73,-184.31,B
0.0532,0.2113,0.1562,36.54,-224.49,-230.93,B
0.2162,-0.0556,0.2206,29.05,-298.97,-310.17,B
0.4875,-0.3499,0.3606,3.43,-401.73,-345.45,B
0.6442,-0.6803,0.8257,-12.46,-489.72,-331.45,B
0.6471,-1.1619,1.1727,-39.34,-463.33,-300.93,B
0.6637,-2.1316,1.7519,5.11,-487.41,-257.11,B
0.6242,-1.708,1.8207,51.17,-244.16,-78.75,B
0.6007,-1.0512,1.3244,72.52,-104.3,-17.92,B
0.4948,-0.6437,0.9511,90.44,-96.46,-3.29,B
0.4968,-0.3719,0.9165,57.33,-103.95,-10.36,B
0.5007,-0.3299,1.0838,19.39,-95.34,-23.73,B
0.5485,-0.4221,1.0565,-43.12,-44.1,-22.61,B
0.5324,-0.5744,0.9023,-53.06,-23.24,-7.42,B
0.591,-0.69,0.9828,22.54,-13.37,-12.95,B
0.5846,-0.7681,0.9306,66.36,15.82,-9.38,B
0.5529,-0.6315,0.9438,107.73,21.0,-23.73,B
0.5534,-0.5719,0.956,114.52,49.7,-14.35,B
0.4982,-0.4953,0.9155,98.0,36.33,9.31,B
0.4802,-0.4055,0.8804,47.25,31.01,16.94,B
0.4568,-0.4304,0.8711,3.01,23.66,19.74,B
0.4529,-0.4792,0.9004,-36.47,16.94,28.98,B
0.4499,-0.5085,0.8882,-65.87,17.08,36.33,B
0.429,-0.5856,1.0394,-72.17,11.69,36.61,B
0.4729,-0.8721,1.4294,-120.19,57.4,64.33,B
0.4543,-0.8525,1.1161,-108.78,156.31,115.85,B
0.3543,-0.6368,0.7701,-53.83,143.43,128.17,B
0.224,-0.7432,1.096,-55.3,104.86,107.66,B
0.2884,-0.8857,1.1639,-71.47,126.91,123.9,B
0.3523,-1.0487,1.2185,-74.48,171.78,151.62,B
0.4246,-1.0565,0.7418,-27.3,200.9,211.4,B
0.3655,-0.7159,0.7218,30.45,190.68,239.05,B
0.2879,-0.4055,0.7042,52.08,187.74,229.39,B
0.1498,-0.2499,0.8862,45.71,185.01,177.8,B
0.0566,-0.3343,0.7584,32.9,196.84,136.85,B
-0.0239,-0.5139,0.8589,17.08,190.05,107.52,B
-0.0903,-0.5744,0.612,26.04,180.39,107.31,B
-0.1191,-0.4524,0.4021,45.29,148.96,102.83,B
-0.2303,-0.3802,0.4992,64.82,98.35,80.78,B
-0.2562,-0.3187,0.4987,56.35,85.54,57.61,B
-0.3279,-0.3216,0.4797,56.7,49.56,35.21,B
-0.3499,-0.3196,0.6905,31.71,25.41,14.07,B
-0.3631,-0.3304,0.7725,4.76,21.42,0.0,B
-0.3699,-0.3963,0.7544,-12.11,16.59,-19.74,B
-0.3719,-0.4587,0.6398,-25.62,11.97,-29.89,B
-0.3636,-0.51,0.6178,-17.29,7.49,-26.6,B
-0.3626,-0.5622,0.5539,-1.26,-7.84,-19.04,B
-0.3558,-0.529,0.6798,3.85,-16.66,-10.57,B
-0.3621,-0.4817,0.8115,-0.07,-15.26,-13.58,B
-0.3479,-0.4729,0.9618,-21.49,0.49,-16.59,B
-0.3245,-0.4782,1.0433,-42.35,23.87,-19.25,B
-0.3089,-0.3597,1.3469,-81.76,78.61,-14.77,B
-0.3621,-0.2996,1.2063,-97.58,128.24,-36.89,B
-0.2801,-0.0717,1.2483,-119.84,182.28,-69.16,B
-0.3138,-0.0512,0.8769,-146.3,228.06,-140.14,B
-0.2435,-0.3699,0.507,-134.61,224.7,-196.35,B
-0.2777,-0.7164,0.1742,-91.98,188.09,-210.63,B
-0.2162,-0.8032,0.1479,-69.37,139.58,-185.85,B
-0.2416,-0.6437,0.2733,-42.14,121.87,-181.93,B
-0.2381,-0.7144,0.062,-18.55,92.26,-193.76,B
-0.2328,-0.8657,-0.1147,24.64,33.6,-196.21,B
-0.1879,-1.0453,0.1288,51.24,-33.95,-184.24,B
-0.1684,-1.1502,0.3143,68.95,-59.36,-150.57,B
-0.1718,-1.0936,0.4416,77.14,-65.87,-122.92,B
-0.144,-1.1034,0.4568,67.41,-72.59,-102.69,B
-0.1,-1.1034,0.3089,71.82,-83.16,-75.74,B
-0.042,-1.2478,0.0756,94.78,-113.75,-36.89,B
0.0634,-1.2986,-0.0981,137.55,-148.4,23.45,B
0.0547,-1.0731,0.4475,157.78,-201.53,64.4,B
-0.0117,-1.2903,0.4119,142.52,-221.41,95.97,B
0.0537,-1.3913,0.2674,185.15,-274.4,147.35,B
0.2577,-1.0575,0.2601,258.86,-336.7,218.47,B
0.3738,-0.1703,1.0272,257.6,-349.79,253.26,B
0.3528,0.8359,1.9715,128.24,-247.24,195.16,B
0.1288,0.4475,1.5128,17.01,-77.77,-0.56,B
0.0488,-0.3065,0.9731,-37.03,-108.99,-70.42,B
0.0366,-0.7788,1.5845,-42.14,-127.61,-57.75,B
0.1635,-0.9584,1.7475,-58.1,-1.68,-11.97,B
0.122,-0.8838,1.3264,-15.19,55.23,36.47,B
0.1454,-0.6442,0.8589,2.45,71.05,52.71,B
0.0825,-0.3909,0.5856,25.97,41.86,47.67,B
0.0376,-0.3294,0.8355,1.75,9.52,20.93,B
0.0283,-0.5519,0.9697,-25.83,20.3,6.02,B
0.0234,-0.6056,0.9335,-37.94,36.47,14.0,B
0.0346,-0.5051,0.8672,-55.16,51.52,9.24,B
0.0122,-0.5836,0.7383,-37.8,42.35,2.17,B
0.0488,-0.4802,1.015,-45.64,73.29,6.51,B
-0.0156,-0.4329,1.0702,-56.98,116.62,-7.49,B
-0.0337,-0.4168,1.0399,-86.03,159.67,-31.57,B
-0.0093,-0.285,0.9765,-129.85,166.53,-57.33,B
-0.0288,-0.6495,0.6344,-102.76,173.81,-101.5,B
-0.0337,-0.874,0.5861,-47.6,146.79,-78.96,B
-0.0322,-0.7261,0.8096,-53.06,131.74,-64.61,B
-0.0478,-0.5817,0.7203,-61.88,136.92,-82.11,B
-0.0522,-0.67,0.5129,-56.56,119.49,-101.01,B
-0.0395,-0.6573,0.4172,-46.69,100.8,-108.57,B
-0.082,-0.7017,0.2137,-23.24,66.64,-130.27,B
-0.0634,-0.9331,0.1532,14.28,4.34,-123.69,B
-0.0332,-0.9331,0.4455,38.22,-19.95,-101.01,B
0.0849,-1.1551,-0.0366,75.25,-23.73,-68.39,B
0.0268,-0.8233,0.1322,166.6,-118.72,-27.72,B
0.0771,-0.4163,0.6373,137.69,-146.58,-42.7,B
0.0888,-0.548,0.4431,95.06,-144.41,-88.06,B
0.1664,-0.9784,-0.0151,151.34,-189.77,-50.96,B
0.2757,-0.7305,0.3475,167.79,-260.61,-23.03,B
0.1728,-0.9043,0.4943,178.85,-301.7,-37.59,B
0.364,-1.2054,0.4758,202.37,-347.41,5.18,B
0.5827,-1.0873,1.137,218.61,-340.9,74.41,B
0.569,-0.9008,1.1736,166.18,-219.1,114.1,B
0.467,-0.6529,1.2312,120.26,-131.46,144.76,B
0.5178,-0.1713,1.1961,53.83,-108.29,135.45,B
0.4397,-0.1405,1.039,61.74,-67.55,85.26,B
0.426,-0.1806,1.0199,55.02,-50.19,53.27,B
0.4177,-0.1527,1.1063,33.53,-72.1,43.75,B
0.4265,-0.1718,1.2644,-8.19,-49.35,35.63,B
0.4187,-0.3967,1.1878,-39.83,-12.25,29.89,B
0.4358,-0.5305,1.1195,-47.18,2.94,49.07,B
0.3997,-0.4826,1.079,-52.36,22.89,61.04,B
0.3689,-0.4455,0.9243,-55.09,38.43,53.69,B
0.3426,-0.4099,0.6403,-17.78,29.12,50.54,B
0.3157,-0.3328,0.8652,-3.5,-9.03,30.38,B
0.3123,-0.4475,0.9726,-27.23,4.06,7.21,B
0.347,-0.713,0.7247,-28.84,34.16,10.01,B
0.2816,-0.6383,0.6769,0.91,13.58,18.48,B
0.283,-0.5266,0.7203,1.47,10.15,4.06,B
0.2821,-0.571,0.7257,-4.27,5.25,-7.49,B
0.2786,-0.7178,0.6159,-11.9,-1.4,5.46,B
0.303,-0.6564,0.7076,39.69,-14.0,-0.07,B
0.3206,-0.5739,0.9399,28.98,16.03,-1.4,B
0.2952,-0.5495,0.8486,-9.17,11.41,1.12,B
0.3245,-0.5431,0.6832,-21.28,6.44,-4.69,B
0.2972,-0.5744,0.7569,-3.08,-12.67,-10.43,B
0.2991,-0.5758,0.8203,1.47,-8.61,-14.0,B
0.2972,-0.5627,0.8057,8.12,-7.84,-20.79,B
0.2991,-0.5632,0.7837,10.43,-8.68,-30.45,B
0.2928,-0.612,0.8076,21.63,-19.25,-28.56,B
0.3182,-0.6817,1.056,11.69,-8.82,-17.15,B
0.3314,-0.6442,0.9926,-3.08,28.0,3.22,B
0.3187,-0.5666,0.9394,-0.14,35.77,9.17,B
0.3035,-0.5261,1.0141,-9.66,37.45,3.92,B
0.2586,-0.732,1.4845,-54.46,46.55,-0.63,B
0.3353,-1.1366,1.5104,-95.48,124.95,39.13,B
0.4426,-1.2381,1.2161,-63.35,211.4,119.7,B
0.4006,-0.9526,0.894,-20.79,207.34,156.87,B
0.3699,-0.8281,0.9633,12.25,211.75,172.69,B
0.3196,-0.754,0.9775,18.97,235.34,176.68,B
0.2762,-0.5695,0.7671,17.5,235.62,188.37,B
0.0068,-0.3909,0.7056,11.55,218.26,163.31,B
0.0542,-0.4046,0.7208,-21.7,203.84,124.39,B
-0.063,-0.7208,0.6071,-38.43,185.64,91.77,B
-0.0947,-0.6915,0.3723,-19.04,160.72,126.56,B
-0.2206,-0.5773,0.4465,9.87,122.15,140.28,B
-0.2708,-0.5988,0.6212,10.92,100.1,124.46,B
-0.2967,-0.5851,0.7701,2.03,100.87,116.41,B
-0.3436,-0.4773,0.7022,0.98,103.18,114.8,B
-0.3997,-0.406,0.649,3.5,97.86,95.9,B
-0.4343,-0.3816,0.6666,-9.1,92.47,69.51,B
-0.4587,-0.2621,0.5846,-14.42,86.66,55.86,B
-0.4797,-0.2577,0.4651,-18.06,79.59,29.33,B
-0.508,-0.3806,0.2767,-8.05,48.79,5.6,B
-0.5109,-0.407,0.2977,-3.22,11.55,8.75,B
-0.5192,-0.3665,0.5241,-22.33,-10.92,10.64,B
-0.4939,-0.3977,0.5104,-4.48,-7.35,4.41,B
-0.5036,-0.591,0.4592,11.2,-21.0,4.62,B
-0.4909,-0.4992,0.5114,10.64,-35.42,11.76,B
-0.4919,-0.3694,0.5388,18.13,-41.79,1.12,B
-0.4631,-0.264,0.5173,19.95,-44.38,-17.29,B
-0.4836,-0.2347,0.144,53.48,-73.36,-39.41,B
-0.4128,0.0142,0.143,65.66,-121.38,-66.01,B
-0.3333,0.1698,0.205,59.57,-166.25,-109.76,B
-0.1415,0.3011,0.0854,47.67,-192.57,-164.57,B
0.0205,0.1874,0.2821,34.51,-275.66,-238.84,B
0.2791,-0.0449,0.304,-5.25,-337.47,-310.52,B
0.4704,-0.2752,0.4817,-25.62,-402.5,-338.94,B
0.6198,-0.5544,0.7008,-37.1,-434.63,-334.74,B
0.6656,-0.8579,0.612,-23.31,-429.03,-339.99,B
0.6978,-1.7456,1.2176,64.05,-591.15,-344.61,B
0.8442,-1.7295,1.7822,108.01,-464.87,-173.95,B
0.7989,-1.2864,1.829,94.29,-227.85,-81.2,B
0.73,-0.9433,1.218,35.98,-78.82,-37.66,B
0.6627,-0.61,0.834,28.28,-86.45,-23.38,B
0.7071,-0.7393,1.035,-8.75,-86.52,6.65,B
0.7403,-0.3128,0.9838,-24.92,-70.63,-11.2,B
0.7159,-0.7974,1.1209,32.76,-14.63,48.86,B
0.7471,-0.2777,1.1165,31.64,33.74,5.25,B
0.773,-0.5309,1.1165,46.41,101.36,-11.76,B
0.7374,-0.7027,1.0111,49.07,98.0,20.37,B
0.6783,-0.5344,0.8306,67.06,80.64,28.84,B
0.5861,-0.3567,0.7579,80.64,91.42,5.46,B
0.4792,-0.3738,0.7364,66.01,60.97,-3.85,B
0.4329,-0.3972,0.8755,29.26,21.14,-3.57,B
0.4612,-0.5954,1.2693,-18.06,21.42,9.52,B
0.5436,-0.8574,1.5562,-101.57,115.15,59.92,B
0.6373,-1.2268,1.7836,-160.58,215.95,136.43,B
0.6964,-1.2156,1.1917,-170.52,325.71,238.77,B
0.6007,-0.73,0.5446,-80.99,311.29,297.78,B
0.2547,-0.2704,0.4563,-14.49,253.33,267.26,B
0.2713,-0.2845,0.5578,-18.13,217.49,209.23,B
0.1264,-0.3777,0.6266,-14.7,186.76,178.36,B
0.0508,-0.4582,0.7491,-19.32,170.24,150.71,B
0.0293,-0.4514,0.5202,-4.55,163.73,138.81,B
-0.1,-0.4514,0.6041,16.1,121.87,122.15,B
-0.0991,-0.3714,0.6368,27.72,112.28,103.18,B
-0.1854,-0.4412,0.6798,39.9,92.4,80.22,B
-0.1908,-0.4914,0.7554,39.06,87.43,66.57,B
-0.2499,-0.4187,0.6456,52.5,72.8,61.04,B
-0.2728,-0.4714,0.9087,34.93,63.63,38.43,B
-0.2889,-0.4573,0.8999,21.0,72.8,38.71,B
-0.2938,-0.3436,0.9057,13.37,78.33,38.78,B
-0.3445,-0.3226,1.0292,-7.14,77.77,14.14,B
-0.3006,-0.265,1.1649,-41.65,105.56,3.29,B
-0.3182,-0.0932,1.1326,-64.61,146.44,-4.48,B
-0.2899,0.1401,1.1541,-103.74,188.51,-38.43,B
-0.3289,0.1,0.9716,-117.46,221.27,-111.09,B
-0.2216,-0.1615,0.5763,-126.77,241.29,-166.46,B
-0.2679,-0.7525,0.0063,-72.1,171.78,-179.2,B
-0.2952,-0.7315,0.2904,-34.51,141.47,-160.58,B
-0.3026,-0.6007,0.4338,-31.15,135.8,-162.75,B
-0.324,-0.5553,0.2201,-28.98,121.17,-182.56,B
-0.2865,-0.6178,-0.1122,-27.23,82.95,-203.0,B
-0.2162,-0.9423,-0.7442,42.91,-0.49,-192.36,B
-0.1908,-0.8052,-0.3245,98.14,-136.08,-167.16,B
-0.0185,-0.8989,-0.4265,121.52,-169.05,-162.12,B
0.0078,-1.0682,-0.182,175.35,-287.0,-138.46,B
-0.0239,-1.3327,0.4455,164.99,-353.43,-99.12,B
-0.0615,-1.7651,0.8706,121.31,-334.6,-37.52,B
0.0722,-1.8202,1.0599,102.76,-295.05,64.54,B
0.203,-1.1912,0.9062,115.43,-235.9,175.07,B
0.1908,-0.5817,0.8896,119.7,-201.18,186.41,B
0.1523,0.0981,1.1209,76.02,-175.0,136.57,B
0.1845,0.1854,1.1844,-19.32,-105.42,53.97,B
0.0986,-0.3943,1.1107,31.43,-99.89,-19.53,B
0.0307,-0.7623,1.463,-59.15,-65.45,-17.64,B
0.1337,-0.9692,1.5104,-68.25,-14.98,7.35,B
0.1469,-0.9521,1.3542,5.88,48.16,54.04,B
0.103,-0.7042,1.1287,48.37,72.52,64.61,B
0.0747,-0.3811,0.8725,45.57,73.78,54.46,B
0.0024,-0.366,0.5544,44.45,52.71,35.77,B
-0.0102,-0.306,0.8452,22.82,12.11,15.82,B
-0.0059,-0.2562,0.954,-35.35,36.68,-6.23,B
-0.0503,-0.4368,0.9833,-73.22,32.41,-36.61,B
-0.04,-0.4573,1.1429,-114.52,66.92,-35.91,B
-0.0459,-0.6193,1.2927,-136.08,119.07,-42.91,B
-0.0708,-0.7979,1.2283,-144.2,172.06,-50.47,B
0.0181,-0.7515,0.8433,-128.1,213.01,-36.47,B
0.0303,-0.5714,0.448,-87.15,214.9,-46.48,B
-0.0224,-0.427,0.3387,-70.14,196.84,-87.43,B
-0.0547,-0.5397,0.2147,-67.76,155.54,-139.09,B
-0.0859,-0.7286,0.0527,-68.74,93.1,-139.09,B
-0.0659,-0.8926,0.3597,-29.05,58.1,-125.93,B
-0.0766,-1.0468,0.5261,-33.46,51.45,-108.01,B
-0.0639,-1.0024,0.346,-23.03,37.87,-88.97,B
-0.0366,-0.8857,0.2811,6.16,12.88,-77.49,B
-0.0293,-0.7813,0.2484,39.69,-10.99,-85.05,B
-0.0073,-0.834,0.2079,68.39,-45.43,-89.25,B
0.0415,-0.916,0.0556,101.99,-72.87,-84.98,B
0.0483,-0.896,0.0322,165.48,-144.55,-61.53,B
0.1357,-0.8769,0.0693,170.24,-189.35,-59.64,B
0.1967,-0.9091,0.0185,216.58,-255.36,-23.59,B
0.3006,-0.8799,0.0595,232.54,-313.88,-12.46,B
0.4441,-0.9252,0.0917,254.59,-372.19,9.94,B
0.5041,-0.8779,0.3143,303.38,-443.73,52.29,B
0.5646,-0.8642,1.5772,218.26,-450.1,93.73,B
0.7525,-0.834,1.8754,117.04,-134.12,154.42,B
0.5495,-0.5392,1.5538,37.24,-80.15,182.35,B
0.5173,-0.1132,1.2259,30.73,-44.45,141.75,B
0.449,0.0683,1.2586,71.96,-34.3,74.34,B
0.4158,-0.103,1.3727,23.73,-25.9,37.03,B
0.469,-0.2001,1.198,-36.33,15.75,16.17,B
0.388,-0.4168,0.9965,-20.44,19.32,28.77,B
0.4041,-0.3904,1.0199,-36.4,10.99,32.34,B
0.3797,-0.4641,0.9296,-45.08,17.08,25.06,B
0.3294,-0.5539,0.8984,-29.54,6.93,24.5,B
0.3167,-0.5666,0.9677,-30.03,18.13,25.2,B
0.3016,-0.6432,0.7974,-35.7,37.73,18.41,B
0.245,-0.6749,0.5817,1.33,27.65,24.85,B
0.2606,-0.5378,0.7281,5.74,3.43,14.0,B
0.2562,-0.6002,0.6183,-7.35,13.93,-7.77,B
0.2474,-0.6705,0.6046,-6.23,-2.8,-13.93,B
0.2557,-0.7613,0.6461,-5.88,-16.45,-14.42,B
0.2567,-0.8281,0.6271,-44.03,-7.63,3.43,B
0.2884,-0.7706,0.7291,58.03,-8.19,8.47,B
0.3045,-0.5524,0.9228,13.86,19.53,0.07,B
0.283,-0.608,0.7325,-25.06,1.61,4.9,B
0.3016,-0.6124,0.7379,-16.73,-9.8,-2.45,B
0.285,-0.6046,0.8374,-2.8,-11.13,-10.92,B
0.2806,-0.651,0.9043,5.18,-2.03,-15.33,B
0.2962,-0.6803,0.7481,15.05,17.08,-16.94,B
0.2616,-0.5856,0.7247,40.81,-3.5,-14.0,B
0.2811,-0.5148,0.7793,41.79,-8.05,-23.24,B
0.2894,-0.5392,0.774,39.27,-6.65,-27.65,B
0.2996,-0.5036,0.8569,26.04,-13.37,-22.47,B
0.3167,-0.5012,0.8716,5.53,-2.59,-24.15,B
0.3094,-0.5695,0.8516,-18.48,2.94,-22.68,B
0.3499,-0.5851,0.9848,5.6,15.4,-16.31,B
0.326,-0.4494,0.9418,-42.77,14.0,-28.84,B
0.3538,-0.4192,0.9409,-48.44,25.9,-37.87,B
0.3377,-0.5319,0.8657,-49.98,50.47,-45.36,B
0.3479,-0.6334,0.7457,-46.69,51.66,-34.51,B
0.324,-0.611,0.7608,-39.27,32.9,-26.53,B
0.3533,-0.4763,0.9623,-55.23,28.56,-29.19,B
0.3421,-0.5475,0.977,-82.67,49.63,-45.99,B
0.3357,-0.6744,0.8945,-99.12,57.96,-44.73,B
0.3118,-0.7696,0.7876,-100.31,61.74,-37.17,B
0.307,-0.7535,0.7232,-92.19,60.48,-23.45,B
0.305,-0.6783,0.7154,-88.83,58.94,-19.74,B
0.2728,-0.7515,0.6925,-83.37,60.13,-28.14,B
0.2694,-0.9296,0.7305,-81.27,65.52,-14.07,B
0.2508,-1.0712,0.8062,-77.35,80.08,14.07,B
0.246,-1.1082,0.7115,-52.01,89.53,49.07,B
0.2255,-0.9989,0.6373,-18.69,74.9,70.0,B
0.2401,-0.8584,0.5788,-7.14,72.24,79.24,B
0.1991,-0.8233,0.6568,7.07,66.85,75.88,B
0.1898,-0.9545,0.8818,-17.08,82.67,80.08,B
0.2206,-1.16,0.9111,-48.58,122.92,109.27,B
0.2689,-1.1263,0.4773,-31.08,167.23,160.79,B
0.1298,-0.9399,0.1693,34.02,142.59,183.26,B
0.0478,-0.7784,0.3777,51.52,88.48,166.11,B
-0.0102,-0.6793,0.5383,48.86,71.12,146.44,B
-0.0449,-0.6764,0.5895,32.55,69.79,129.78,B
-0.1113,-0.5744,0.5168,30.94,57.82,122.64,B
-0.1635,-0.5602,0.669,16.03,44.38,94.85,B
-0.1903,-0.5583,0.6466,3.78,45.08,77.7,B
-0.2269,-0.7135,0.6442,2.87,44.24,54.74,B
-0.2338,-0.8628,0.6017,6.23,37.38,60.97,B
-0.223,-0.8345,0.4631,26.04,28.07,89.18,B
-0.2577,-0.8325,0.5719,39.41,9.24,93.59,B
-0.2552,-0.6734,0.6324,37.59,10.15,106.96,B
-0.3089,-0.5305,0.6969,28.42,8.89,97.3,B
-0.3245,-0.4836,0.7896,6.72,15.47,78.54,B
-0.3518,-0.4577,0.7623,-10.15,20.79,58.94,B
-0.3675,-0.652,0.6076,-16.1,18.83,32.97,B
-0.3621,-0.6486,0.6066,-7.28,5.6,47.74,B
-0.3655,-0.6549,0.7032,-4.83,5.67,60.69,B
-0.3782,-0.612,0.6061,5.81,12.25,66.08,B
-0.4104,-0.507,0.5529,17.64,4.9,62.86,B
-0.4392,-0.4231,0.5895,21.0,-7.28,45.36,B
-0.4168,-0.5632,0.8135,-5.88,-4.9,30.31,B
-0.4309,-0.6017,0.6827,0.49,-2.1,37.66,B
-0.4333,-0.4636,0.7022,5.6,-3.99,35.28,B
-0.449,-0.4631,0.7286,0.0,-6.09,12.04,B
-0.4036,-0.631,0.7652,-17.36,2.66,4.48,B
-0.4255,-0.6764,0.5734,-1.19,-13.44,16.59,B
-0.4124,-0.5758,0.6939,13.44,-10.22,20.23,B
-0.4343,-0.5007,0.5905,8.47,-13.09,10.71,B
-0.4436,-0.5788,0.69,-4.27,-26.25,-0.56,B
-0.4187,-0.5968,0.7354,-6.37,-20.23,4.55,B
-0.429,-0.5368,0.7071,2.03,-15.4,1.75,B
-0.4197,-0.53,0.6778,6.86,-14.84,-7.84,B
-0.4143,-0.5744,0.6866,13.51,-16.8,-11.69,B
-0.4124,-0.6407,0.7286,18.34,-17.71,-14.84,B
-0.386,-0.7115,0.7418,19.11,-10.64,-8.61,B
-0.3992,-0.6095,0.7437,22.19,-12.11,1.47,B
-0.3992,-0.5329,0.7422,18.2,-9.8,-2.38,B
-0.4114,-0.4695,0.7242,17.08,-11.2,-10.5,B
-0.4031,-0.4538,0.7681,9.59,-9.94,-17.5,B
-0.3933,-0.5017,0.7632,2.45,-3.43,-24.64,B
-0.3811,-0.5436,0.7135,-3.29,-3.85,-25.76,B
-0.3699,-0.671,0.651,-1.33,-11.06,-27.09,B
-0.3509,-0.6368,0.6525,2.73,-16.38,-14.77,B
-0.3514,-0.5856,0.6803,7.49,-19.95,-15.54,B
-0.3689,-0.3723,0.5832,16.94,-20.02,-25.41,B
-0.3406,-0.2645,0.5427,13.79,-21.63,-52.36,B
-0.2767,0.0405,0.2328,21.42,-14.49,-72.94,B
-0.242,0.1444,0.1254,28.7,-43.19,-123.9,B
-0.1937,-0.0288,0.1371,24.92,-103.04,-191.17,B
-0.0098,-0.3338,0.1908,10.08,-189.77,-241.36,B
0.1947,-0.529,0.0249,18.76,-233.17,-227.85,B
0.3845,-0.3884,-0.0551,74.2,-289.38,-207.48,B
0.4514,-0.4904,0.3558,79.17,-404.39,-245.14,B
0.4363,-0.9555,0.8979,50.47,-458.01,-272.65,B
0.5739,-1.5958,1.8036,35.14,-466.76,-204.12,B
0.59,-1.4552,1.9095,6.44,-216.79,-74.34,B
0.609,-0.8442,1.3654,6.3,-115.43,-26.25,B
0.5246,-0.6373,1.0399,20.44,-110.39,-44.1,B
0.5602,-0.6739,1.1917,23.31,-130.41,-53.83,B
0.5998,-0.7657,1.3996,-3.43,-89.81,-42.98,B
0.6266,-0.69,1.1756,-38.36,-15.26,-18.06,B
0.6017,-0.7125,1.1263,-89.25,32.27,-9.59,B
0.6022,-1.0775,0.9594,58.73,64.54,22.33,B
0.5285,-0.8208,1.0892,32.34,101.64,51.03,B
0.4573,-0.6471,0.7388,45.01,101.29,46.97,B
0.426,-0.5495,0.6481,68.74,84.77,36.54,B
0.3543,-0.5378,0.6861,69.93,51.52,12.6,B
0.3392,-0.6105,0.8086,50.89,30.59,3.57,B
0.3406,-0.7598,1.0375,19.74,29.61,12.04,B
0.344,-0.7954,0.9057,-2.03,81.06,45.99,B
0.2869,-0.6695,0.7413,10.22,73.5,62.72,B
0.2596,-0.5768,0.8945,3.15,19.25,58.31,B
0.2874,-0.753,1.2947,-68.11,55.86,73.78,B
0.3167,-0.9111,1.0712,-98.14,136.99,113.54,B
0.2255,-0.8267,0.734,-52.22,122.08,144.48,B
0.2133,-0.611,0.7125,-23.1,98.91,146.44,B
0.222,-0.406,0.5451,0.14,96.81,132.16,B
0.1186,-0.2704,0.5539,23.87,66.99,101.64,B
0.0356,-0.429,0.9321,1.54,36.82,56.07,B
0.06,-0.8359,1.1951,-46.83,59.22,48.44,B
0.1362,-0.9033,0.9428,-35.7,116.9,97.02,B
0.0517,-0.6891,0.6632,13.65,111.16,122.22,B
0.0049,-0.3772,0.6534,31.43,92.26,99.19,B
-0.0239,-0.367,0.7037,25.83,83.72,57.61,B
-0.1049,-0.669,0.7989,18.97,69.44,40.46,B
-0.1049,-0.6686,0.8237,18.48,70.7,60.41,B
-0.1327,-0.5358,0.8423,13.02,73.99,60.55,B
-0.1288,-0.4197,0.7501,-1.75,73.08,47.32,B
-0.1771,-0.426,0.669,6.09,58.8,24.5,B
-0.1835,-0.5075,0.7286,5.11,56.7,14.07,B
-0.2045,-0.5388,0.6168,8.47,49.98,11.69,B
-0.1991,-0.4978,0.5612,12.25,33.81,3.08,B
-0.2157,-0.4304,0.6027,15.4,7.14,-10.78,B
-0.2225,-0.6544,0.9994,-14.49,-2.03,-28.28,B
-0.1523,-0.8218,1.4376,-60.34,45.01,-7.14,B
-0.1532,-0.8901,1.669,-89.25,107.8,22.68,B
-0.0805,-0.6695,1.3113,-96.46,196.7,63.98,B
-0.1025,-0.1103,0.9843,-81.9,256.13,59.22,B
-0.1918,0.1718,0.672,-85.61,256.9,-30.03,B
-0.242,-0.0586,0.387,-98.07,235.34,-121.87,B
-0.2181,-0.4646,0.059,-84.7,186.34,-162.19,B
-0.2552,-0.6071,0.0527,-63.49,141.54,-147.28,B
-0.2806,-0.4992,0.1962,-59.01,127.68,-136.08,B
-0.2899,-0.5485,0.1074,-58.03,104.02,-160.3,B
-0.2542,-0.7071,-0.2152,-38.15,53.9,-174.02,B
-0.2108,-0.9062,-0.4451,22.47,-2.1,-168.49,B
-0.1552,-1.0531,-0.5168,96.46,-81.83,-144.48,B
-0.121,-0.9414,-0.1415,168.84,-182.98,-114.17,B
-0.0293,-0.7481,0.1205,175.35,-209.02,-110.39,B
0.0278,-0.856,0.041,189.49,-244.79,-117.39,B
0.1078,-1.1536,0.1069,205.59,-325.08,-101.99,B
0.2445,-1.4303,0.7793,153.09,-351.54,-46.62,B
0.1996,-1.6304,0.9862,145.74,-328.86,38.08,B
0.3445,-1.3171,1.2786,114.87,-281.12,118.79,B
0.345,-0.7471,1.3337,100.38,-231.28,156.8,B
0.3323,-0.3226,1.4894,56.42,-172.48,136.22,B
0.2869,-0.3006,1.3054,43.61,-100.52,79.94,B
0.2259,-0.2669,1.4333,-9.24,-43.96,52.08,B
0.2196,-0.3445,1.3644,-27.51,-12.95,5.81,B
0.1859,-0.447,1.6226,-28.56,37.52,-15.33,B
0.184,-0.8335,1.4664,-48.16,92.19,-7.07,B
0.203,-0.915,1.1244,-42.77,136.85,34.65,B
0.0932,-0.9638,0.8799,-21.21,123.34,67.41,B
0.1196,-0.8545,0.8794,-21.14,134.05,100.94,B
0.0415,-0.5539,0.7788,-5.32,134.47,107.52,B
-0.0122,-0.4089,0.7544,-13.09,129.78,84.35,B
-0.0913,-0.468,0.9531,-43.26,126.7,59.99,B
-0.0303,-0.4226,0.8364,-72.94,157.36,49.98,B
-0.0781,-0.2777,0.6554,-78.96,164.01,25.83,B
-0.1196,-0.3436,0.5104,-70.28,153.09,-24.01,B
-0.1269,-0.2664,0.4978,-96.18,134.61,-69.93,B
-0.0791,-0.5095,0.6359,-73.71,150.57,-79.8,B
-0.1376,-0.4919,0.4929,-70.56,146.58,-129.71,B
-0.1166,-0.6891,0.2845,-62.93,116.83,-148.12,B
-0.1108,-0.9306,0.1664,-34.65,79.73,-145.95,B
-0.1088,-1.0404,0.2908,-4.06,49.07,-123.27,B
-0.1186,-1.0531,0.2777,14.07,42.07,-101.71,B
-0.1147,-1.0477,0.1498,32.69,16.94,-81.41,B
-0.0722,-0.9048,0.2045,44.45,-13.79,-61.46,B
-0.0854,-0.8008,0.1996,52.78,-35.42,-65.73,B
-0.0566,-0.8457,0.1684,66.43,-66.92,-66.85,B
-0.0376,-0.8223,0.2347,74.76,-91.49,-60.83,B
0.0259,-0.9745,0.0185,89.74,-113.4,-58.52,B
0.0761,-1.0355,-0.1,137.55,-189.21,-32.06,B
0.142,-0.9736,0.0561,159.95,-239.54,-8.61,B
0.2216,-0.9594,0.1444,170.1,-289.52,6.37,B
0.2494,-1.1224,0.4699,175.42,-351.4,24.71,B
0.4948,-1.4269,0.8408,157.92,-351.4,79.66,B
0.5617,-1.3137,1.5055,130.34,-272.51,173.74,B
0.4782,-0.8091,1.5831,68.6,-208.67,194.46,B
0.4773,-0.4036,1.6314,78.19,-106.19,172.06,B
0.3865,-0.2313,1.6724,63.77,-35.77,132.93,B
0.2913,-0.265,1.6612,-16.03,20.44,108.29,B
0.2908,-0.3245,1.2464,-40.74,62.58,104.58,B
0.1967,-0.2991,1.0199,-19.81,54.95,92.82,B
0.1903,-0.2884,1.0326,-37.52,46.9,66.57,B
0.1484,-0.4563,0.8345,-51.17,54.04,44.94,B
0.0991,-0.649,0.6944,-34.93,37.03,38.08,B
0.0947,-0.7125,0.6242,-21.35,31.57,38.57,B
0.0425,-0.6798,0.6017,-0.28,4.55,40.25,B
0.0161,-0.5666,0.6808,2.1,-1.19,27.72,B
0.0083,-0.5627,0.6773,-2.24,2.52,6.58,B
0.0185,-0.6212,0.6617,-6.23,6.51,-9.38,B
-0.0303,-0.5314,0.548,-35.07,11.55,-34.16,B
-0.0449,-0.8555,0.3084,-0.07,-35.21,-14.07,B
0.0468,-1.0111,0.8716,-2.52,-31.85,22.26,B
0.0532,-0.7627,0.8423,-5.95,-26.46,1.47,B
0.0483,-0.5671,0.8067,-17.08,-13.37,-3.29,B
0.0566,-0.6827,0.7998,-5.11,-11.34,-10.22,B
0.0595,-0.651,0.8101,4.76,-4.27,-19.18,B
0.0717,-0.651,0.7603,18.69,-1.12,-19.88,B
0.0532,-0.6456,0.7842,24.64,-6.3,-27.16,B
0.0337,-0.6207,0.8218,24.64,-10.64,-41.02,B
0.0547,-0.6647,0.8228,16.31,-5.46,-52.08,B
0.0464,-0.7115,0.7774,19.46,-1.89,-37.03,B
0.0493,-0.6154,0.8491,23.73,-8.4,-1.47,B
0.0561,-0.5544,0.853,16.17,5.88,-19.67,B
0.0644,-0.6163,0.833,5.81,11.97,-22.33,B
0.0937,-0.6847,0.7823,-8.96,17.36,-11.2,B
0.0961,-0.7296,0.7584,24.85,14.0,-7.98,B
0.0688,-0.6852,0.8579,-9.87,18.55,-15.68,B
0.0664,-0.692,0.6598,-19.46,6.72,-25.34,B
0.0888,-0.7071,0.7383,0.21,-3.57,-31.15,B
0.1049,-0.7906,0.7242,-4.27,2.8,-20.86,B
0.0908,-0.8696,0.6852,2.45,0.28,-1.54,B
0.0947,-0.6422,0.71,-4.27,-8.12,12.46,B
0.08,-0.713,0.6974,-11.13,-9.31,9.59,B
0.0673,-0.7071,0.7593,-23.94,-4.55,12.18,B
0.0473,-0.6549,0.7886,-37.52,-10.43,9.1,B
0.0478,-0.6481,0.8037,-47.81,0.56,-6.02,B
0.0625,-0.7632,0.631,-31.5,-2.1,-5.04,B
0.0771,-0.713,0.69,-12.11,-13.72,-0.91,B
0.0937,-0.6773,0.7715,-5.81,-11.06,-11.83,B
0.1049,-0.7749,0.7637,-1.26,-3.36,-15.12,B
0.103,-0.7862,0.7886,4.27,-1.54,-6.23,B
0.1166,-0.7261,0.7871,4.06,7.42,-2.1,B
0.1254,-0.7027,0.7735,1.96,11.48,-6.93,B
0.1381,-0.7183,0.7096,3.5,11.2,-8.26,B
0.1513,-0.7169,0.6642,9.1,6.09,-10.57,B
0.142,-0.7257,0.6324,18.69,-8.12,-11.13,B
0.1484,-0.6964,0.6837,17.92,-11.55,-11.48,B
0.1464,-0.6642,0.7393,14.91,-12.32,-14.56,B
0.1513,-0.6856,0.7642,9.52,-7.56,-19.04,B
0.1698,-0.7315,0.7779,5.46,-0.7,-17.92,B
0.182,-0.7706,0.7305,5.04,5.32,-14.21,B
0.1732,-0.8233,0.632,13.09,-0.07,-8.26,B
0.163,-0.7569,0.6705,13.16,-10.78,3.43,B
0.1366,-0.6915,0.6603,10.99,-12.67,4.13,B
0.1196,-0.6324,0.6686,12.32,-17.92,3.43,B
0.1191,-0.6061,0.73,5.46,-17.22,-2.87,B
0.141,-0.6915,0.7476,0.0,-12.25,-5.88,B
0.1703,-0.7193,0.7735,-0.7,-7.84,0.35,B
0.1864,-0.7115,0.7637,-2.52,-2.66,-0.21,B
0.1903,-0.7613,0.7042,-2.31,-1.96,0.63,B
0.2245,-0.7769,0.7462,5.53,-2.52,3.71,B
0.202,-0.6891,0.671,0.35,-8.82,3.64,B
0.1854,-0.712,0.7032,14.77,-9.66,0.84,B
0.1889,-0.6881,0.731,13.58,-10.43,2.17,B
0.181,-0.6769,0.7432,10.92,-9.66,-3.57,B
0.1869,-0.7437,0.8008,6.65,-9.8,-3.5,B
0.1893,-0.7281,0.8042,2.45,-0.49,5.46,B
0.1791,-0.7013,0.774,3.57,4.2,9.45,B
0.1679,-0.6612,0.7193,4.55,3.5,7.77,B
0.1508,-0.6378,0.6988,6.72,-2.52,2.45,B
0.144,-0.6237,0.7203,8.05,-9.03,-2.03,B
0.1527,-0.6202,0.7803,4.34,-9.87,-8.19,B
0.1596,-0.7096,0.8218,-2.24,-7.56,-11.48,B
0.1742,-0.7832,0.8574,-7.56,-1.05,-1.96,B
0.181,-0.7754,0.8599,-8.68,11.76,9.59,B
0.1606,-0.7105,0.7901,-4.48,15.33,12.81,B
0.1508,-0.6422,0.7086,-0.28,13.79,8.96,B
0.142,-0.61,0.6559,2.94,6.93,-1.12,B
0.1366,-0.6573,0.6178,14.42,-1.61,-8.12,B
0.1362,-0.6612,0.7232,9.38,-11.34,-8.61,C
0.143,-0.6895,0.7564,-1.89,-8.82,-10.22,C
0.1366,-0.7544,0.7842,-3.5,-10.5,-4.55,C
0.1552,-0.7554,0.896,-13.93,-0.63,7.56,C
0.1386,-0.6627,0.852,-10.01,13.65,10.43,C
0.1371,-0.632,0.7871,-6.72,17.22,3.71,C
0.1249,-0.629,0.7398,-6.37,13.72,-5.04,C
0.1352,-0.7013,0.6827,-0.49,9.59,-7.77,C
0.143,-0.7588,0.7998,-1.05,3.64,-2.8,C
0.142,-0.7247,0.7998,-5.53,11.34,2.87,C
0.1381,-0.6988,0.7593,-4.9,11.97,1.05,C
0.1298,-0.6866,0.7779,-5.74,8.4,-1.26,C
0.1332,-0.7017,0.8291,-8.75,14.84,-2.73,C
0.1318,-0.6749,0.8218,-13.65,22.61,-1.96,C
0.1318,-0.6656,0.7359,-16.66,30.59,-6.93,C
0.1264,-0.7056,0.6549,-10.64,20.79,-9.87,C
0.1161,-0.771,0.5832,-3.71,9.87,-7.56,C
0.103,-0.771,0.6608,7.21,-6.23,-2.17,C
0.1088,-0.7257,0.791,1.26,-5.11,-0.28,C
0.1093,-0.7598,0.8272,-6.37,0.56,1.96,C
0.1166,-0.73,0.8169,-10.71,7.49,6.79,C
0.1122,-0.7203,0.7247,-6.16,12.67,5.88,C
0.0986,-0.7076,0.7086,0.84,10.08,4.9,C
0.0888,-0.7257,0.8389,-5.88,10.92,3.99,C
0.101,-0.754,0.8799,-16.66,27.86,10.22,C
0.1205,-0.7627,0.6817,-13.86,35.14,13.79,C
0.1049,-0.7574,0.57,-1.82,15.61,14.14,C
0.0859,-0.7076,0.6876,3.92,2.38,13.02,C
0.0717,-0.609,0.8677,-4.48,4.2,11.83,C
0.0615,-0.5475,0.854,-19.04,20.09,1.89,C
0.0439,-0.5666,0.7618,-21.63,25.06,-7.35,C
0.0346,-0.569,0.8013,-28.07,28.21,-13.37,C
0.0181,-0.5724,0.7793,-38.64,36.96,-21.98,C
0.0468,-0.6905,0.5295,-44.73,41.51,-36.61,C
0.0508,-0.975,0.55,-31.5,20.93,-31.01,C
0.0703,-1.0497,0.8281,-24.64,9.31,-0.63,C
0.0917,-0.8979,1.0097,-35.77,44.73,21.63,C
0.0581,-0.792,0.794,-34.44,64.68,23.73,C
0.0293,-0.6983,0.6364,-28.0,62.09,19.39,C
0.0054,-0.6041,0.6612,-26.53,60.48,5.18,C
-0.0283,-0.7989,0.7891,-37.59,63.63,-12.81,C
0.0068,-0.9814,0.7618,-59.78,84.91,-3.71,C
-0.0049,-0.9799,0.486,-44.73,89.74,18.97,C
-0.0395,-0.8662,0.4172,-30.24,64.89,24.64,C
-0.0605,-0.7779,0.426,-23.31,43.19,17.43,C
-0.0688,-0.7706,0.5705,-23.45,35.07,4.55,C
-0.0683,-0.8242,0.5466,-28.35,39.2,-5.25,C
-0.0415,-0.8408,0.5353,-29.12,33.88,-7.49,C
-0.0181,-0.8252,0.5241,-33.04,37.17,-12.67,C
-0.0093,-0.8799,0.5085,-34.16,38.5,-22.12,C
-0.019,-1.1063,0.4704,-38.92,33.95,-24.08,C
-0.0351,-1.0868,0.5319,-40.11,21.98,-13.58,C
-0.0376,-1.0731,0.5788,-42.63,21.98,7.14,C
-0.0473,-0.9511,0.4924,-31.15,20.86,21.56,C
-0.062,-0.8403,0.4856,-15.96,13.37,25.06,C
-0.0698,-0.7481,0.5348,-5.88,20.72,19.6,C
-0.0859,-0.7618,0.5085,0.56,28.14,7.56,C
-0.0996,-0.8189,0.4773,2.52,24.57,0.28,C
-0.0712,-0.9082,0.528,-4.83,23.17,-1.12,C
-0.0634,-0.9677,0.4758,-8.47,21.98,3.64,C
-0.0849,-0.9892,0.489,-12.25,11.62,9.66,C
-0.1069,-0.9716,0.6368,-17.99,5.67,21.98,C
-0.1181,-0.9316,0.6339,-21.56,19.6,34.37,C
-0.1591,-0.8413,0.4948,-3.71,24.29,42.84,C
-0.1928,-0.7593,0.5553,3.99,20.93,38.99,C
-0.2006,-0.8218,0.7227,-5.67,31.64,33.39,C
-0.185,-0.9077,0.7271,-21.56,55.16,38.78,C
-0.1918,-0.9409,0.5719,-24.57,65.38,48.58,C
-0.1874,-0.9579,0.5036,-21.21,64.12,59.08,C
-0.225,-0.9989,0.5866,-23.03,59.57,65.87,C
-0.203,-1.0258,0.3919,-11.34,68.95,77.63,C
-0.2411,-0.9121,0.2772,18.27,47.74,101.71,C
-0.2704,-0.793,0.3577,22.47,33.18,100.87,C
-0.2743,-0.9145,0.347,28.63,28.07,77.63,C
-0.2664,-0.9594,0.2699,33.46,17.22,80.08,C
-0.2635,-1.0497,0.0537,46.55,-0.42,88.41,C
-0.2684,-1.0292,0.1405,60.69,-38.36,109.27,C
-0.2777,-0.8159,0.1532,74.34,-54.04,140.42,C
-0.2962,-0.5524,0.2284,84.56,-65.03,127.19,C
-0.3431,-0.5388,0.1093,89.32,-77.28,98.56,C
-0.3811,-0.5983,0.5602,63.42,-114.59,72.31,C
-0.3323,-0.7174,0.9828,0.14,-86.1,70.91,C
-0.3382,-0.672,0.4865,13.09,-46.41,77.7,C
-0.3387,-0.5534,0.3938,18.97,-73.85,77.07,C
-0.3357,-0.5822,0.3221,30.87,-96.53,64.33,C
-0.3221,-0.5427,0.4138,48.51,-107.31,56.42,C
-0.2747,-0.4734,0.3904,51.73,-102.41,52.43,C
-0.3294,-0.3436,0.3396,71.82,-134.26,37.45,C
-0.3055,-0.285,0.7349,31.71,-158.97,16.03,C
-0.3099,-0.2338,0.754,11.27,-157.29,-0.63,C
-0.284,-0.3123,0.8691,-15.96,-151.27,-24.15,C
-0.2523,-0.3279,0.7222,-12.04,-149.24,-31.71,C
-0.2069,-0.3719,0.7081,-4.62,-155.19,-53.55,C
-0.1254,-0.3177,0.6261,12.53,-167.79,-63.56,C
-0.0337,-0.2059,0.65,16.24,-184.45,-82.53,C
0.019,-0.1401,0.6808,16.59,-216.44,-112.49,C
0.1132,-0.1396,0.8472,-8.54,-236.95,-148.82,C
0.181,-0.2338,0.9965,-38.43,-238.35,-177.66,C
0.2708,-0.2689,1.1,-51.66,-228.83,-191.94,C
0.3821,-0.3294,1.3254,-72.59,-185.99,-210.91,C
0.4587,-0.4758,1.5875,-83.16,-137.27,-232.61,C
0.3977,-0.8028,1.7851,-96.25,-56.63,-244.37,C
0.4192,-1.2888,2.3312,-144.27,64.26,-242.06,C
0.4914,-1.5333,2.0154,-191.31,261.1,-138.6,C
0.4973,-1.1195,1.1448,-184.59,354.48,-83.65,C
0.5187,-0.9823,0.7257,-186.55,367.85,-68.04,C
0.4182,-0.8735,0.0527,-137.83,339.64,-54.32,C
0.3621,-0.8345,-0.1479,-28.77,231.63,-79.31,C
0.2118,-0.8237,-0.0708,2.03,152.95,-70.77,C
0.181,-0.7974,0.0952,10.29,72.66,-78.05,C
0.2098,-0.8789,0.2279,19.04,18.2,-79.31,C
0.1332,-1.0692,0.2869,67.97,-10.78,-62.3,C
0.1469,-1.0516,0.6017,49.91,-18.55,-49.7,C
0.204,-1.2049,0.5368,67.69,-15.47,-11.48,C
0.185,-1.1458,0.754,94.01,-2.45,28.0,C
0.1937,-0.8735,0.6695,29.47,10.64,38.71,C
0.202,-0.6681,0.6422,-1.12,-4.69,39.55,C
0.1762,-0.713,0.6281,-9.59,-12.25,30.17,C
0.1186,-0.6817,0.7105,-43.54,-17.85,27.44,C
0.1166,-0.6798,0.6461,-49.42,-24.92,16.59,C
0.161,-0.6769,0.7076,-25.62,-24.08,17.08,C
0.1332,-0.8023,0.8716,-11.48,-15.54,16.59,C
0.1288,-0.8686,0.7891,-11.41,-8.89,26.32,C
0.1303,-0.7979,0.731,-5.74,-4.69,32.76,C
0.122,-0.7208,0.7969,-12.6,3.15,28.84,C
0.0996,-0.731,0.7203,-21.42,4.9,26.46,C
0.0996,-0.7696,0.6359,-27.16,2.66,26.74,C
0.1044,-0.7881,0.5466,-7.49,-13.58,38.22,C
0.0932,-0.7344,0.6373,7.42,-21.42,31.29,C
0.0712,-0.7788,0.6242,-13.37,-22.47,30.38,C
0.1318,-0.791,0.5383,-9.59,-25.9,27.44,C
0.1122,-0.8174,0.5632,26.46,-38.99,24.5,C
0.1161,-0.7637,0.6754,17.01,-42.63,27.16,C
0.1196,-0.7881,0.5866,22.54,-42.91,23.52,C
0.1078,-0.7842,0.6198,32.69,-59.85,24.36,C
0.141,-0.6891,0.7823,26.46,-54.11,23.45,C
0.1488,-0.632,0.8799,13.09,-35.77,8.61,C
0.1078,-0.6481,0.7813,-17.5,-19.39,-13.23,C
0.12,-0.8325,0.5695,-17.36,-8.61,-22.19,C
0.0991,-0.9101,0.5529,8.96,-27.02,-9.87,C
0.1122,-0.8379,0.631,17.22,-34.58,1.19,C
0.1347,-0.7632,0.7091,14.35,-32.55,4.41,C
0.1254,-0.7676,0.7359,-1.47,-22.4,0.63,C
0.1322,-0.9575,0.4616,30.59,-26.11,12.46,C
0.0947,-0.8764,0.571,42.91,-59.01,30.38,C
0.1093,-0.7374,0.7076,49.0,-61.88,26.46,C
0.1327,-0.6788,0.7418,50.05,-58.73,18.34,C
0.1874,-0.5744,0.8057,31.99,-38.29,13.37,C
0.1688,-0.5656,0.8154,14.07,-19.04,-1.61,C
0.1591,-0.6383,0.732,-8.33,-2.24,-20.93,C
0.162,-0.8769,0.447,9.17,-1.05,-21.84,C
0.2186,-1.0282,0.3221,42.21,-24.64,-1.61,C
0.1464,-1.0106,0.3035,115.08,-100.73,35.42,C
0.202,-0.8403,0.6505,109.97,-119.84,55.65,C
0.2274,-0.6642,0.8974,85.89,-111.37,53.76,C
0.2455,-0.5788,0.9209,37.31,-58.59,41.58,C
0.223,-0.551,0.8457,1.68,-63.98,29.54,C
0.2142,-0.4919,0.9618,-20.3,-67.97,12.88,C
0.2464,-0.5475,0.9594,-45.64,-36.54,-3.43,C
0.2391,-0.6798,0.8886,-43.54,-12.25,-8.12,C
0.2596,-0.8072,0.6808,-33.04,7.7,-4.13,C
0.2201,-0.8647,0.5812,21.21,-17.64,17.29,C
0.2518,-0.7047,0.7701,27.02,-26.39,22.19,C
0.2621,-0.6783,0.9614,11.34,-10.78,15.75,C
0.2645,-0.6856,0.9819,-26.46,26.25,16.66,C
0.2323,-0.7144,0.8764,-40.11,40.95,12.11,C
0.2386,-0.813,0.8862,-50.12,55.02,16.52,C
0.2064,-0.8979,0.9584,-56.77,76.16,34.23,C
0.1879,-0.9165,0.8628,-46.76,99.75,51.59,C
0.1625,-0.8608,0.835,-35.77,103.74,68.04,C
0.1474,-0.7198,0.7788,-35.0,106.12,68.53,C
0.1171,-0.5998,0.7579,-41.86,92.61,54.39,C
0.1083,-0.5685,0.9677,-76.09,97.93,30.52,C
0.0976,-0.6764,0.9814,-110.25,132.51,16.31,C
0.0576,-0.7935,0.8642,-133.0,163.17,14.56,C
0.021,-0.9765,0.856,-144.06,173.32,20.23,C
0.0669,-1.0258,0.571,-133.91,194.53,40.25,C
0.0132,-1.1175,0.3367,-95.13,180.11,56.28,C
-0.0093,-0.9365,0.3792,-61.25,147.49,95.83,C
-0.0854,-0.59,0.5378,-69.3,147.56,89.46,C
-0.1391,-0.4475,0.3479,-73.57,145.81,38.08,C
-0.2059,-0.5456,0.1498,-75.67,116.2,-21.42,C
-0.2167,-0.7886,0.1601,-79.59,77.14,-53.55,C
-0.1928,-0.9121,0.2103,-81.69,61.11,-48.02,C
-0.1952,-1.0077,0.3333,-80.01,49.7,-33.74,C
-0.1747,-1.0097,0.3401,-87.78,61.04,-14.0,C
-0.1659,-1.0146,0.1157,-70.21,61.74,-8.12,C
-0.1659,-1.096,-0.0395,-38.29,43.12,-5.04,C
-0.2011,-1.0594,-0.002,-1.96,3.5,14.7,C
-0.1747,-0.9111,0.3606,-5.04,-7.7,29.96,C
-0.2308,-0.835,0.5431,-34.02,26.81,22.26,C
-0.2318,-0.8721,0.347,-42.42,50.26,10.5,C
-0.2133,-0.915,0.121,-18.83,38.01,1.33,C
-0.1986,-0.9584,0.1,-24.43,12.95,0.7,C
-0.1972,-0.9984,0.1591,-13.44,0.77,3.43,C
-0.185,-1.1053,0.142,-2.31,-4.41,4.2,C
-0.182,-1.0682,0.1396,17.43,-17.5,27.23,C
-0.2089,-1.0111,0.2557,28.28,-27.23,41.3,C
-0.2211,-0.954,0.4397,22.33,-21.42,46.62,C
-0.242,-0.9101,0.5602,3.99,2.1,42.77,C
-0.2401,-0.9189,0.4158,-6.16,25.2,36.12,C
-0.2464,-0.9736,0.1039,8.19,19.39,27.3,C
-0.2489,-1.0868,0.1615,14.63,-8.68,26.25,C
-0.2455,-1.0965,0.2372,22.19,-24.15,46.9,C
-0.2284,-1.1224,0.2562,20.65,-21.56,66.99,C
-0.2328,-1.035,0.2743,26.25,-23.73,93.03,C
-0.2645,-0.8569,0.2342,37.03,-22.26,106.33,C
-0.2835,-0.754,0.1523,46.41,-21.07,94.5,C
-0.3314,-0.8125,0.0332,69.79,-40.04,72.38,C
-0.2362,-1.0458,-0.1908,76.79,-46.69,58.24,C
-0.3021,-1.1351,-0.3167,136.15,-122.29,86.38,C
-0.2025,-0.852,0.2474,118.16,-163.17,152.74,C
-0.0942,-0.7608,0.1791,103.81,-105.0,146.58,C
-0.266,-0.5339,0.3094,135.45,-159.67,143.78,C
-0.3016,-0.2264,0.5441,89.18,-136.08,111.16,C
-0.3065,-0.3045,0.0586,94.36,-109.27,53.76,C
-0.326,-0.0888,0.1757,100.52,-177.45,28.49,C
-0.1903,-0.0742,-0.0512,89.46,-185.85,-11.62,C
-0.1391,0.0112,-0.0156,123.83,-265.72,-42.98,C
0.082,0.121,0.1454,105.91,-327.04,-79.66,C
0.2264,0.0137,0.4924,75.25,-392.91,-145.67,C
0.3314,-0.0517,1.0453,21.35,-440.58,-188.23,C
0.4934,-0.2796,1.26,-38.71,-393.82,-216.51,C
0.2523,-0.8804,1.5782,-41.02,-409.36,-270.55,C
0.6251,-1.2756,1.9696,-53.9,-354.9,-201.11,C
0.5246,-1.0829,2.216,-57.19,-165.55,-126.56,C
0.5153,-0.8721,2.0057,-94.92,29.75,-103.67,C
0.5246,-0.7418,1.6587,-138.74,138.18,-75.46,C
0.426,-0.4729,1.2517,-165.13,207.69,-62.58,C
0.3597,-0.2274,0.8247,-191.94,226.45,-101.99,C
0.4231,-0.5573,0.3689,-206.43,210.14,-142.31,C
0.3694,-1.1893,-0.0098,-31.99,132.44,-133.35,C
0.4363,-1.3196,0.6354,22.61,145.32,-100.03,C
0.3553,-1.5372,0.3777,47.81,152.74,-40.32,C
0.2621,-1.1244,0.3831,-3.5,105.56,1.33,C
0.2625,-0.8764,0.305,-1.4,61.04,-20.72,C
0.2298,-0.8472,0.4797,27.93,38.78,-29.26,C
0.2284,-0.8047,0.4753,27.09,43.61,-38.5,C
0.2176,-0.8423,0.4616,37.52,12.74,-38.22,C
0.246,-0.9043,0.489,46.97,-4.9,-36.54,C
0.243,-0.9008,0.6242,47.18,-16.66,-25.13,C
0.2621,-0.8608,0.7105,13.09,-21.35,-9.45,C
0.2801,-0.7984,0.8613,-10.08,-1.12,7.42,C
0.2113,-0.751,0.6207,-47.46,0.35,10.85,C
0.1957,-0.7169,0.5944,-44.8,-17.15,8.96,C
0.1913,-0.7666,0.6612,-35.21,-19.74,12.88,C
0.1815,-0.7818,0.6622,-23.1,-16.8,17.01,C
0.2172,-0.7174,0.691,-15.33,-16.87,20.37,C
0.2025,-0.7286,0.6759,-12.11,-7.49,12.88,C
0.2054,-0.7603,0.7017,-6.58,-8.19,13.58,C
0.2137,-0.7584,0.7047,-4.27,-5.74,15.82,C
0.2352,-0.7671,0.7066,-2.24,-5.67,22.19,C
0.2176,-0.7793,0.6656,-2.17,2.38,29.12,C
0.2142,-0.7671,0.6725,-2.17,1.75,29.47,C
0.2006,-0.7837,0.6373,-3.36,3.08,28.07,C
0.1874,-0.7881,0.5807,-0.49,-2.03,26.53,C
0.1708,-0.8072,0.5436,5.88,-12.32,24.36,C
0.1708,-0.8003,0.5724,11.55,-26.25,26.04,C
0.2274,-0.7418,0.751,-0.7,-33.95,26.6,C
0.1923,-0.8179,0.8506,-38.71,1.05,14.98,C
0.1845,-1.038,0.6759,-30.45,16.52,27.16,C
0.1664,-0.9794,0.5793,-4.83,6.65,51.8,C
0.1601,-0.8008,0.611,15.12,1.12,54.95,C
0.1254,-0.7408,0.6207,5.74,-0.63,49.77,C
0.1435,-0.8286,0.7315,35.49,-1.33,39.9,C
0.0747,-1.1248,0.9428,2.38,10.22,54.11,C
0.2484,-1.0604,0.7598,-14.14,54.25,98.84,C
0.1362,-0.9243,0.5797,20.72,50.33,108.29,C
0.1352,-0.7671,0.6895,20.65,47.67,105.63,C
0.0766,-0.6983,0.9477,-4.9,63.42,90.37,C
0.0288,-0.7579,0.937,-31.36,97.44,70.7,C
0.0005,-1.0228,0.896,-50.4,117.6,60.97,C
-0.0473,-1.1278,0.7906,-41.93,120.26,85.4,C
-0.0395,-1.097,0.7691,-40.81,127.26,118.3,C
-0.0278,-0.8115,0.3723,-3.85,122.5,152.25,C
-0.0049,-0.2996,0.3977,21.42,97.37,158.69,C
-0.1752,-0.1327,0.4646,11.76,95.55,89.53,C
-0.2474,-0.2718,0.4231,-10.01,78.19,15.4,C
-0.2508,-0.447,0.6129,-59.08,70.49,-21.0,C
-0.222,-0.5095,0.5958,-90.72,84.91,-36.12,C
-0.222,-0.608,0.3104,-89.11,80.85,-53.69,C
-0.2455,-0.8891,0.1928,-61.95,39.2,-67.06,C
-0.2469,-1.0053,0.3543,-41.02,15.4,-35.07,C
-0.3606,-0.8584,0.5261,-32.69,30.17,-12.81,C
-0.2406,-0.7637,0.3806,-24.5,33.88,-22.05,C
-0.2655,-0.8735,0.3572,-19.46,11.34,-37.17,C
-0.2557,-0.875,0.4729,-30.1,-1.61,-46.62,C
-0.2616,-0.9599,0.6612,-46.06,7.35,-40.81,C
-0.2108,-1.1292,0.5436,-50.19,23.66,-22.75,C
-0.1967,-1.0053,0.4221,-27.58,13.51,5.53,C
-0.2133,-0.8833,0.385,-0.21,8.75,1.47,C
-0.2328,-0.9374,0.4255,-2.1,-2.73,-2.59,C
-0.2279,-0.916,0.4919,-4.62,6.23,5.74,C
-0.2123,-0.8198,0.5226,-6.58,11.83,4.83,C
-0.2323,-0.8154,0.5051,-22.26,27.23,-9.24,C
-0.2342,-0.9487,0.3484,-20.23,22.33,-15.4,C
-0.2401,-1.1361,0.5744,-30.45,14.98,-6.58,C
-0.2499,-1.2132,0.4202,-11.41,23.24,15.33,C
-0.2508,-1.098,0.4075,6.37,11.55,39.34,C
-0.2557,-0.9394,0.3582,23.66,-3.57,45.36,C
-0.244,-0.629,0.5583,13.58,20.44,41.02,C
-0.2772,-0.6139,0.4582,0.84,36.26,2.66,C
-0.2869,-0.7491,0.3084,-10.08,27.65,-21.21,C
-0.2743,-0.8721,0.364,-24.15,11.34,-28.21,C
-0.2699,-0.9165,0.3982,-32.27,7.63,-24.43,C
-0.2704,-0.917,0.3909,-31.43,7.7,-20.16,C
-0.283,-0.9921,0.4231,-31.78,7.42,-18.69,C
-0.2547,-1.0106,0.3206,-23.31,11.48,-6.72,C
-0.2674,-1.0219,0.3104,-13.44,2.24,-2.03,C
-0.2264,-1.0941,0.2538,-7.56,-0.21,0.28,C
-0.2289,-1.0912,0.1435,13.72,-21.77,20.09,C
-0.2064,-1.0336,0.2772,16.8,-32.27,44.17,C
-0.2167,-1.0268,0.4709,7.49,-26.46,52.64,C
-0.1918,-1.0063,0.4558,-6.02,1.54,61.25,C
-0.1967,-1.1439,0.2786,-3.64,19.04,55.86,C
-0.1942,-1.221,0.1898,16.66,5.04,68.6,C
-0.184,-1.1161,0.1757,36.82,-7.21,116.55,C
-0.2152,-0.9892,0.1698,66.5,-17.92,140.42,C
-0.2245,-0.8379,0.1098,86.52,-25.69,142.45,C
-0.2503,-0.6881,0.0059,100.31,-47.18,132.51,C
-0.2904,-0.6759,-0.3533,132.37,-90.16,110.88,C
-0.3133,-0.7227,0.4275,120.33,-166.67,102.34,C
-0.2913,-0.6398,0.9267,53.34,-117.53,119.21,C
-0.3684,-0.4821,0.5915,54.46,-57.54,108.5,C
-0.3514,-0.5783,0.0415,72.8,-62.79,82.18,C
-0.3953,-0.4538,0.5431,80.85,-146.86,81.13,C
-0.3943,-0.2547,0.7544,53.06,-110.67,61.53,C
-0.4065,-0.1386,0.5026,56.42,-89.32,20.23,C
-0.367,-0.0698,0.1723,61.32,-125.58,-18.48,C
-0.3172,0.002,0.2655,38.22,-204.4,-62.02,C
-0.1039,-0.1308,0.0493,38.5,-231.56,-118.51,C
-0.1191,-0.3289,0.9091,32.83,-340.06,-163.59,C
-0.0342,-1.0082,1.5191,-72.59,-276.15,-183.82,C
-0.0322,-1.483,1.505,-67.34,-182.63,-93.24,C
-0.0727,-1.2693,1.3269,-10.22,-100.03,-12.39,C
-0.0898,-0.7803,0.9902,24.08,-51.87,17.99,C
-0.0673,-0.3406,0.8091,45.08,-51.87,-19.67,C
-0.0161,-0.1859,0.835,28.63,-65.38,-64.4,C
0.0683,-0.0371,0.8662,-11.9,-50.12,-92.33,C
0.1425,0.1884,0.8442,-81.76,-51.8,-145.46,C
0.2967,0.1342,0.6076,-113.26,-93.66,-192.92,C
0.1181,-0.4841,1.2615,-101.22,-115.01,-359.45,C
0.2987,-1.7431,2.1848,-233.59,-8.47,-300.93,C
0.2972,-1.8729,1.4264,-206.36,208.18,-130.06,C
0.3509,-1.0829,0.5905,-101.78,268.38,-86.52,C
0.2957,-0.9496,0.0522,-43.05,225.33,-120.68,C
0.2362,-1.0995,0.0727,-2.52,129.85,-118.23,C
0.2333,-1.2229,0.0859,27.93,80.92,-69.58,C
0.1991,-0.9687,0.2757,43.82,52.92,-42.63,C
0.1835,-0.9038,0.3782,20.65,33.25,-56.98,C
0.2074,-1.0009,0.4958,-4.76,15.96,-49.07,C
0.2054,-1.0463,0.5553,-16.94,13.86,-21.49,C
0.2069,-1.0141,0.6944,-16.52,17.92,1.75,C
0.182,-0.9028,0.6773,-16.45,35.91,14.91,C
0.1581,-0.8906,0.5056,-20.65,34.72,19.74,C
0.161,-0.8613,0.4421,9.03,28.35,33.04,C
0.1269,-0.6983,0.4314,9.24,-0.77,12.81,C
0.1513,-0.7174,0.5578,12.11,-18.06,4.27,C
0.1118,-0.7749,0.6281,-1.05,-7.42,-1.82,C
0.1113,-0.8535,0.5993,3.29,-16.24,7.56,C
0.121,-0.8091,0.6676,-2.87,-21.77,13.58,C
0.1205,-0.7784,0.8047,-24.64,-10.5,10.99,C
0.1083,-0.8447,0.6529,-31.99,5.46,11.83,C
0.1108,-0.8516,0.6007,-26.39,-0.07,18.55,C
0.0996,-0.8389,0.6066,-26.95,-2.73,21.14,C
0.1108,-0.8189,0.6344,-26.6,-7.42,25.69,C
0.1059,-0.7135,0.5812,-27.23,0.63,20.58,C
0.0942,-0.7627,0.5197,-18.06,-8.96,11.69,C
0.1005,-0.7828,0.5871,-16.38,-14.63,10.71,C
0.1035,-0.832,0.5963,-13.65,-8.33,6.65,C
0.0961,-0.8638,0.5958,-7.0,-3.85,6.93,C
0.1039,-0.874,0.5602,-1.61,-4.27,3.29,C
0.1108,-0.8935,0.609,2.66,-8.33,4.62,C
0.0971,-0.8486,0.5885,1.12,-2.38,5.67,C
0.0942,-0.8218,0.55,4.83,-4.34,3.43,C
0.0917,-0.8189,0.5724,3.57,-8.4,0.42,C
0.103,-0.7647,0.5661,0.84,-2.8,-3.43,C
0.1059,-0.8218,0.5241,0.84,-7.91,-5.04,C
0.1171,-0.876,0.5251,7.49,-14.35,-6.02,C
0.1054,-0.9643,0.6573,8.4,-8.75,-1.4,C
0.1142,-1.0019,0.588,0.98,-10.99,13.51,C
0.1118,-0.9096,0.6066,9.24,-10.5,20.51,C
0.1078,-0.8599,0.6422,13.02,-11.27,24.99,C
0.082,-0.792,0.652,8.05,2.31,19.67,C
0.0786,-0.813,0.6373,2.1,6.37,11.06,C
0.0849,-0.8457,0.5671,1.54,8.68,10.57,C
0.0449,-0.9335,0.673,0.14,2.52,5.53,C
-0.0015,-1.2854,0.9409,-20.37,23.38,15.61,C
-0.0146,-1.6665,1.1175,-31.43,48.79,60.27,C
0.1205,-1.8017,0.9726,-27.37,102.13,144.83,C
0.3084,-1.5884,0.6647,10.57,134.82,245.98,C
0.2796,-0.8306,0.2167,63.77,124.18,307.79,C
0.1469,-0.2874,0.1708,104.86,68.6,248.5,C
-0.0898,-0.6095,1.0214,47.74,31.5,164.08,C
-0.0117,-0.7008,0.8935,-26.25,114.45,135.8,C
-0.0805,-0.4504,0.5427,-32.27,133.35,161.84,C
-0.2464,-0.2152,0.527,-55.16,129.15,122.01,C
-0.3977,-0.3372,0.7042,-84.21,112.56,40.32,C
-0.3118,-0.6417,0.6769,-124.11,145.95,14.49,C
-0.3533,-0.8584,-0.0786,-74.06,124.18,16.8,C
-0.3738,-0.8901,-0.2191,-15.96,40.53,34.51,C
-0.3772,-0.6978,0.0346,18.9,-12.88,51.66,C
-0.4133,-0.4978,0.4133,20.02,-27.72,30.38,C
-0.4304,-0.4524,0.6383,-5.95,-3.15,7.28,C
-0.4338,-0.4343,0.5222,-33.18,22.75,-19.32,C
-0.4348,-0.5275,0.4558,-56.0,19.74,-48.16,C
-0.4421,-0.6651,0.4358,-64.96,13.37,-66.92,C
-0.4187,-0.8125,0.6237,-85.96,33.95,-75.88,C
-0.3797,-0.9662,0.3475,-68.18,37.66,-68.53,C
-0.347,-1.0414,0.1342,-36.47,19.18,-45.43,C
-0.3533,-1.0355,0.2298,-10.15,-12.11,-17.64,C
-0.368,-0.9667,0.4246,1.26,-16.8,-2.73,C
-0.3719,-0.8838,0.4607,2.8,-2.87,2.8,C
-0.3821,-0.8316,0.3855,3.64,-0.35,0.84,C
-0.386,-0.8198,0.5573,-14.0,4.2,-8.33,C
-0.3909,-0.8535,0.3811,-21.84,25.13,-13.65,C
-0.3826,-0.9638,0.3348,-14.07,22.26,-20.72,C
-0.3553,-1.0526,0.2752,-4.13,14.21,-13.44,C
-0.3548,-1.0585,0.1796,15.96,-1.12,-0.56,C
-0.3753,-1.0878,0.1454,44.1,-28.49,6.72,C
-0.3357,-1.1175,0.283,55.44,-44.66,22.82,C
-0.3035,-1.0482,0.2752,70.07,-45.36,48.79,C
-0.3192,-0.9755,0.4548,59.78,-54.74,59.78,C
-0.3357,-0.8974,0.4685,60.41,-46.06,66.92,C
-0.3084,-0.9521,0.5007,43.75,-28.28,57.68,C
-0.345,-0.9057,0.3206,62.44,-24.85,71.54,C
-0.3274,-0.936,0.1157,79.8,-40.53,102.06,C
-0.3426,-0.7906,-0.1488,137.27,-86.52,113.96,C
-0.3943,-0.5485,0.4738,119.21,-136.71,103.88,C
-0.364,-0.5602,0.9174,50.54,-69.3,83.02,C
-0.368,-0.6481,0.3484,47.32,-42.91,68.11,C
-0.3616,-0.7984,0.1981,43.33,-89.25,62.02,C
-0.2562,-0.7979,0.1864,35.7,-107.31,67.06,C
-0.3533,-0.6154,0.5056,56.42,-150.71,68.81,C
-0.3274,-0.5212,0.4275,43.19,-127.68,50.96,C
-0.4124,-0.2767,0.5353,51.59,-159.46,39.83,C
-0.3475,-0.0161,0.2879,47.39,-150.85,6.23,C
-0.2933,0.1488,0.3123,52.5,-208.53,-50.26,C
-0.1493,0.0088,0.2923,28.49,-247.66,-131.88,C
-0.0151,-0.1254,0.4441,13.37,-317.73,-168.07,C
0.1625,-0.346,0.7462,-33.32,-333.97,-190.12,C
0.2323,-0.5173,0.8296,-41.3,-337.33,-203.07,C
0.3314,-0.6998,1.1248,-19.74,-337.47,-211.26,C
0.1786,-1.1736,1.6978,-31.57,-340.62,-207.76,C
0.468,-1.2849,2.2799,-75.81,-190.75,-126.91,C
0.4773,-1.241,2.4854,-162.47,61.67,-51.31,C
0.3938,-0.7969,1.6289,-180.6,206.36,7.28,C
0.1918,-0.1615,1.035,-203.0,244.3,-21.7,C
0.1415,-0.0776,0.753,-237.86,220.36,-96.81,C
0.1908,-0.3802,0.5456,-194.74,203.98,-148.54,C
0.2259,-0.8159,0.4299,-127.89,231.56,-154.28,C
0.244,-1.0243,0.265,-111.58,198.8,-117.32,C
0.305,-1.1356,0.0595,-60.41,140.63,-112.42,C
0.2645,-1.3274,0.365,4.9,100.94,-98.35,C
0.2133,-1.3113,0.6095,20.86,81.55,-70.07,C
0.2015,-1.1585,0.5031,30.59,87.57,-39.48,C
0.1747,-0.9638,0.406,45.57,80.5,-27.37,C
0.161,-0.833,0.2889,56.07,63.35,-29.54,C
0.1723,-0.7901,0.2943,60.9,34.3,-36.33,C
0.181,-0.8218,0.3587,43.12,12.04,-45.57,C
0.203,-0.9789,0.4104,20.86,-9.31,-47.39,C
0.2289,-0.9975,0.5705,-9.45,-24.78,-24.71,C
0.1869,-0.9999,0.5954,-34.58,-24.5,-1.68,C
0.1908,-0.9804,0.6388,-30.8,-17.22,21.07,C
0.1669,-0.8886,0.5744,-31.01,-15.4,32.62,C
0.1498,-0.8296,0.5861,-20.51,-16.73,30.87,C
0.144,-0.7213,0.6173,-4.34,-10.22,28.77,C
0.1069,-0.7056,0.5339,-2.31,1.33,8.12,C
0.1127,-0.7847,0.5388,7.07,-12.95,1.19,C
0.1352,-0.8467,0.5968,6.16,-16.52,1.47,C
0.1576,-0.8906,0.6739,3.5,-19.25,9.45,C
0.1581,-0.9374,0.6617,-7.21,-10.15,34.23,C
0.1625,-0.9155,0.6627,-13.93,-10.78,29.47,C
0.1391,-0.8457,0.608,-19.46,-1.12,31.85,C
0.1127,-0.7984,0.5319,-9.31,-4.41,28.84,C
0.1215,-0.753,0.5314,-5.25,-3.92,24.85,C
0.1015,-0.7398,0.4953,-5.11,-9.8,15.47,C
0.1093,-0.7871,0.5436,-10.92,-16.03,2.8,C
0.122,-0.8667,0.5495,-17.85,-18.13,-1.82,C
0.1269,-0.9111,0.4958,-11.76,-21.49,-0.21,C
0.1405,-0.8486,0.5963,-4.55,-22.54,2.38,C
0.1215,-0.8579,0.5617,-5.25,-10.22,-0.77,C
0.1283,-0.8706,0.5305,0.98,-11.83,0.49,C
0.1347,-0.9223,0.5812,1.12,-13.44,6.02,C
0.1449,-0.9843,0.6271,23.1,-4.2,13.02,C
0.1083,-1.2185,0.4968,43.12,-5.04,43.05,C
0.0986,-1.1478,0.5446,63.49,-27.51,74.97,C
0.0527,-1.0502,0.671,85.33,-37.52,86.8,C
0.0913,-0.9457,0.7027,87.5,-30.38,90.79,C
0.0932,-0.9072,0.7662,79.87,-25.97,85.47,C
0.0839,-1.0736,1.076,32.48,-5.46,86.31,C
0.1015,-1.1932,1.6226,-36.96,55.44,111.16,C
0.2059,-1.4337,1.7914,-128.24,183.47,143.99,C
0.4382,-1.2049,0.9658,-131.67,303.17,233.38,C
0.2708,-0.4699,0.1913,-51.24,297.92,278.67,C
-0.0732,-0.1303,-0.1874,26.18,205.87,192.43,C
-0.2528,-0.2118,0.0493,38.29,123.69,83.72,C
-0.2699,-0.5602,0.5607,-21.28,90.65,8.54,C
-0.283,-0.7505,0.3372,-41.44,88.9,17.78,C
-0.3065,-0.7881,0.1147,-38.5,58.8,37.52,C
-0.3431,-0.7164,0.2011,-27.37,7.0,45.64,C
-0.326,-0.6754,0.5563,-31.57,8.96,42.28,C
-0.366,-0.6095,0.5378,-28.63,53.69,32.13,C
-0.3826,-0.6232,0.1757,-26.6,63.21,9.8,C
-0.3919,-0.7745,-0.04,-5.6,34.44,-11.13,C
-0.3963,-0.792,0.1957,-1.61,-18.13,-6.58,C
-0.3933,-0.7559,0.3753,-7.77,-19.46,-1.12,C
-0.3884,-0.6417,0.5056,-16.03,-11.55,2.45,C
-0.406,-0.5622,0.4646,-27.58,0.28,-18.34,C
-0.3826,-0.6593,0.3933,-38.36,0.0,-44.03,C
-0.3704,-0.9292,0.4041,-47.67,-11.2,-36.05,C
-0.3528,-1.0141,0.4299,-39.9,-15.75,-38.43,C
-0.3572,-0.8442,0.5783,-35.28,2.1,-22.54,C
-0.3606,-0.8657,0.5344,-31.92,21.0,-30.8,C
-0.3484,-1.0048,0.3289,-14.21,21.14,-28.14,C
-0.3279,-1.1019,0.2767,2.94,7.42,-9.8,C
-0.3221,-1.0619,0.2913,15.89,-6.44,10.22,C
-0.3416,-0.9843,0.2713,26.18,-20.09,15.96,C
-0.3192,-0.9321,0.2996,29.68,-29.4,13.16,C
-0.3479,-1.0604,0.489,27.16,-40.04,7.56,C
-0.3099,-1.0194,0.5378,21.0,-22.33,25.34,C
-0.3279,-0.9204,0.4387,30.03,-6.65,43.68,C
-0.3548,-0.854,0.4953,27.16,-6.51,37.17,C
-0.3299,-0.8686,0.4055,22.96,9.66,30.03,C
-0.3192,-0.9257,0.2035,36.33,1.4,26.95,C
-0.3382,-1.1966,-0.3255,107.31,-57.96,27.72,C
-0.2806,-1.1268,0.3035,92.75,-124.6,85.26,C
-0.2821,-0.9048,0.649,82.18,-101.92,123.13,C
-0.2982,-0.6588,0.5553,82.6,-62.3,119.63,C
-0.303,-0.6861,0.2123,73.36,-48.65,95.27,C
-0.3094,-0.792,-0.0771,104.93,-99.75,87.57,C
-0.3172,-0.6549,0.4163,90.02,-152.67,102.13,C
-0.3123,-0.549,0.4602,72.45,-130.62,95.97,C
-0.3094,-0.3738,0.7413,35.21,-120.89,70.63,C
-0.3401,-0.4055,0.6412,15.33,-122.29,43.26,C
-0.3201,-0.3362,0.6334,6.16,-128.8,19.81,C
-0.365,-0.2094,0.5846,15.26,-152.53,-6.23,C
-0.3255,-0.0878,0.7432,-1.89,-159.32,-49.98,C
-0.1996,-0.1015,0.406,-6.09,-143.92,-94.36,C
-0.1332,-0.0805,0.2855,21.49,-196.77,-123.27,C
-0.0273,-0.163,0.5783,8.05,-271.74,-166.67,C
0.1005,-0.4836,0.9965,-36.26,-297.71,-219.45,C
0.1854,-0.7574,1.323,-59.01,-269.64,-206.36,C
0.1513,-1.0394,1.5226,-70.35,-205.03,-184.8,C
0.2035,-1.1663,1.7612,-94.29,-115.99,-152.04,C
0.2586,-0.8926,1.791,-131.18,66.71,-87.36,C
0.2167,-0.589,1.4333,-147.7,185.71,-75.88,C
0.1415,-0.3211,0.9955,-163.45,225.82,-106.33,C
0.1366,-0.4909,0.5051,-178.85,203.35,-163.59,C
0.2513,-0.9799,0.2352,-145.95,167.65,-178.22,C
0.2372,-1.158,0.3704,-96.95,151.97,-143.85,C
0.2025,-1.303,0.2933,-83.23,122.71,-95.55,C
0.2303,-1.2332,0.283,-46.62,84.84,-68.46,C
0.2216,-1.281,0.3152,-0.42,64.4,-46.97,C
0.1893,-1.2312,0.5139,17.08,59.57,-18.97,C
0.1752,-1.078,0.5046,39.34,70.91,-1.33,C
0.1244,-0.9043,0.406,45.71,59.57,-10.08,C
0.1186,-0.8623,0.3401,55.3,38.71,-22.68,C
0.1347,-0.8228,0.4553,52.78,17.43,-20.02,C
0.124,-0.8237,0.4577,30.8,18.55,-26.46,C
0.1347,-0.9004,0.3987,25.48,-1.26,-28.35,C
0.1293,-0.9453,0.4963,16.52,-24.15,-10.43,C
0.1318,-0.8984,0.7022,-14.35,-22.75,9.17,C
0.122,-0.8969,0.6959,-33.04,-1.12,19.46,C
0.1108,-0.8921,0.549,-28.07,-0.84,31.15,C
0.0898,-0.834,0.5348,-13.58,-13.72,35.56,C
0.0981,-0.7247,0.6232,-2.45,-22.4,36.68,C
0.0747,-0.7027,0.6198,-16.52,-2.45,17.5,C
0.0805,-0.7984,0.529,-6.65,-7.0,9.38,C
0.0976,-0.8496,0.529,-1.26,-15.4,9.66,C
0.0956,-0.8843,0.5129,7.63,-27.93,10.85,C
0.1181,-0.8062,0.6866,-4.2,-34.02,18.48,C
0.0815,-0.8042,0.6505,-20.23,-15.4,7.56,C
0.0844,-0.8579,0.55,-15.68,-16.03,6.93,C
0.0888,-0.8213,0.59,-11.06,-21.21,13.23,C
0.0893,-0.8076,0.6261,-17.36,-4.83,9.1,C
0.0908,-0.856,0.5358,-15.33,-2.1,5.6,C
0.1025,-0.8745,0.5192,-11.62,-8.68,4.55,C
0.1132,-0.895,0.5207,-10.64,-16.52,2.73,C
0.123,-0.9018,0.5549,-11.9,-19.6,2.45,C
0.1157,-0.9072,0.5729,-10.71,-17.71,1.89,C
0.1069,-0.8965,0.5417,-3.71,-16.8,2.31,C
0.1049,-0.8808,0.5451,4.48,-15.89,1.4,C
0.1093,-0.8833,0.6017,0.21,-6.3,4.34,C
0.1127,-0.9257,0.5461,11.55,-3.36,6.44,C
0.0986,-0.9072,0.6124,13.02,8.4,10.78,C
0.1035,-0.8843,0.4709,2.94,-17.64,9.59,C
0.1078,-0.8535,0.529,5.6,-14.7,5.53,C
0.0966,-0.8867,0.5832,-0.49,-8.47,1.26,C
0.0932,-0.8999,0.5329,7.14,-8.26,1.19,C
0.0927,-0.8599,0.5744,14.0,-12.32,-1.54,C
0.102,-0.8496,0.5841,15.05,-5.88,-7.21,C
0.1157,-0.917,0.6061,20.16,-5.53,-6.09,C
0.1376,-0.9428,0.5983,21.28,-2.52,-2.1,C
0.1386,-0.9414,0.5905,22.89,-4.83,2.1,C
0.1244,-0.9257,0.5905,21.56,-1.75,8.47,C
0.1069,-0.8511,0.5915,22.05,-2.1,12.53,C
0.0908,-0.794,0.5641,15.96,0.21,7.42,C
0.08,-0.7803,0.5617,10.71,-0.98,-0.56,C
0.083,-0.7784,0.569,7.63,-7.49,-5.46,C
0.0878,-0.8267,0.5817,7.56,-6.44,-7.0,C
0.0966,-0.8574,0.5905,8.61,-5.95,-2.24,C
0.0927,-0.8555,0.5929,10.22,-4.06,1.19,C
0.0786,-0.8184,0.5861,8.54,-10.29,1.19,C
0.081,-0.7852,0.6534,-2.87,-7.35,-1.54,C
0.0766,-0.8296,0.5846,-10.15,-2.87,-1.47,C
0.0708,-0.8042,0.5627,-6.44,-6.58,0.91,C
0.0664,-0.7642,0.5661,-5.18,-3.29,-4.41,C
0.0473,-0.8189,0.529,-3.22,-1.47,-10.99,C
0.0473,-0.8662,0.5441,-1.33,-4.06,-9.87,C
0.061,-0.8828,0.5305,1.26,-4.48,-7.84,C
0.0727,-0.855,0.5309,2.52,-6.23,-5.6,C
0.0683,-0.8711,0.5046,3.43,-4.83,-3.22,C
0.0727,-0.8452,0.5392,4.69,-11.76,-0.63,C
0.0805,-0.8262,0.5529,0.56,-9.52,-1.96,C
0.0878,-0.8262,0.5368,-1.89,-6.65,-4.83,C
0.0947,-0.8677,0.4978,-0.28,-6.44,-6.23,C
0.1108,-0.8657,0.5266,5.81,-10.85,-5.67,C
0.1225,-0.8608,0.5553,6.79,-10.85,-6.93,C
0.1269,-0.8716,0.55,8.61,-10.57,-6.09,C
0.1205,-0.8369,0.5744,8.19,-12.74,-5.46,C
0.1225,-0.8115,0.5944,5.32,-10.85,-9.17,C
0.1298,-0.8223,0.5856,6.93,-6.3,-10.43,C
0.1371,-0.8364,0.59,10.5,-4.34,-9.24,C
0.1537,-0.8589,0.5607,11.06,-3.08,-10.01,C
0.1513,-0.8847,0.5183,14.84,-11.34,-6.3,C
0.1449,-0.8555,0.5558,11.48,-13.3,-0.98,C
0.1293,-0.8013,0.5949,9.66,-16.73,2.03,C
0.1313,-0.772,0.6246,3.01,-14.63,-0.7,C
0.1347,-0.773,0.6202,1.61,-11.27,-3.99,C
0.1366,-0.7847,0.6525,-0.42,-7.42,-7.49,C
0.1479,-0.8364,0.6129,-0.07,-2.59,-8.33,C
0.1581,-0.8496,0.5934,1.89,-5.67,-5.74,C
0.1508,-0.8506,0.5807,0.49,-4.69,-3.43,C
0.1493,-0.832,0.5573,3.15,-8.4,-0.56,C
0.1513,-0.8096,0.6022,2.03,-10.01,-0.49,C
0.1488,-0.8189,0.5924,1.68,-8.4,-1.47,C
0.1527,-0.8018,0.6217,0.35,-9.31,-1.68,C
0.1571,-0.8198,0.6412,-0.91,-5.25,-4.55,C
0.1664,-0.8603,0.6285,-2.31,-0.56,-2.94,C
0.163,-0.8921,0.5856,-3.08,1.33,0.98,C
0.1488,-0.8813,0.5456,-1.05,-1.33,5.67,C
0.142,-0.8291,0.5334,2.24,-6.51,6.58,C
0.1362,-0.7881,0.5549,3.99,-7.21,3.64,C
0.144,-0.7642,0.5695,8.75,-5.6,-0.98,C
0.1464,-0.7998,0.5646,1.26,-7.56,-7.35,C
0.1503,-0.8589,0.5856,0.7,-9.17,-9.73,C
0.1586,-0.8716,0.5812,1.4,-6.16,-7.35,C
0.1674,-0.8677,0.571,3.92,-7.14,-5.81,C
0.1718,-0.8564,0.5602,7.63,-6.58,-4.41,C
0.1771,-0.8413,0.5671,9.8,-9.03,-4.13,C
0.1845,-0.8369,0.6007,5.46,-8.61,-6.23,C
0.1845,-0.8662,0.6105,2.45,-7.28,-5.11,C
0.1786,-0.8501,0.6198,1.4,-4.55,-1.75,C
0.1762,-0.8345,0.6159,0.98,-2.1,-1.89,C
0.1825,-0.8467,0.632,-0.49,1.61,-1.12,C
0.1937,-0.8579,0.5944,-3.08,8.47,1.47,C
0.1942,-0.8467,0.5578,-0.7,5.53,3.29,C
0.1869,-0.8316,0.551,1.54,0.42,4.48,C
0.1869,-0.8062,0.569,1.82,-2.03,3.64,C
0.1815,-0.8106,0.5661,0.28,-2.59,1.47,C
0.1845,-0.8218,0.5583,-0.77,-2.45,-0.07,C
0.1845,-0.8213,0.5802,-0.63,-2.52,-1.54,C
0.1845,-0.8403,0.5695,-0.98,0.28,-2.59,C
